subject,block,trial,mu1,mu2,choice,reward,RT
1,1,1,0,0,1,-1,1816
1,1,2,0,0,1,0,587
1,1,3,0,0,1,2,519
1,1,4,0,0,1,-1,671
1,1,5,0,0,1,1,599
1,1,6,0,0,1,-1,670
1,1,7,0,0,1,-1,587
1,1,8,0,0,1,-1,519
1,1,9,0,0,1,1,519
1,1,10,0,0,1,1,743
1,2,1,-1,0,1,-1,815
1,2,2,-1,0,1,-1,608
1,2,3,-1,0,1,-2,423
1,2,4,-1,0,1,0,574
1,2,5,-1,0,1,-1,479
1,2,6,-1,0,2,0,101
1,2,7,-1,0,2,0,511
1,2,8,-1,0,2,0,539
1,2,9,-1,0,2,0,407
1,2,10,-1,0,2,0,365
1,3,1,-1,0,1,-2,663
1,3,2,-1,0,1,-1,513
1,3,3,-1,0,2,0,368
1,3,4,-1,0,2,0,607
1,3,5,-1,0,2,0,343
1,3,6,-1,0,1,-4,400
1,3,7,-1,0,2,0,391
1,3,8,-1,0,2,0,471
1,3,9,-1,0,2,0,287
1,3,10,-1,0,2,0,311
1,4,1,1,0,1,2,644
1,4,2,1,0,1,0,351
1,4,3,1,0,1,2,416
1,4,4,1,0,1,1,359
1,4,5,1,0,1,2,448
1,4,6,1,0,1,-1,320
1,4,7,1,0,1,0,367
1,4,8,1,0,1,2,367
1,4,9,1,0,1,1,348
1,4,10,1,0,1,0,384
1,5,1,1,0,1,0,750
1,5,2,1,0,1,1,343
1,5,3,1,0,1,1,303
1,5,4,1,0,1,0,295
1,5,5,1,0,1,2,304
1,5,6,1,0,1,1,333
1,5,7,1,0,1,2,327
1,5,8,1,0,1,1,375
1,5,9,1,0,1,2,375
1,5,10,1,0,1,1,360
1,6,1,2,0,1,3,527
1,6,2,2,0,1,2,320
1,6,3,2,0,1,0,344
1,6,4,2,0,1,2,336
1,6,5,2,0,1,2,398
1,6,6,2,0,1,2,366
1,6,7,2,0,1,1,443
1,6,8,2,0,1,3,368
1,6,9,2,0,1,2,319
1,6,10,2,0,1,1,342
1,7,1,-1,0,1,-1,512
1,7,2,-1,0,1,-3,967
1,7,3,-1,0,2,0,271
1,7,4,-1,0,2,0,263
1,7,5,-1,0,2,0,293
1,7,6,-1,0,2,0,286
1,7,7,-1,0,2,0,310
1,7,8,-1,0,2,0,320
1,7,9,-1,0,2,0,319
1,7,10,-1,0,2,0,375
1,8,1,0,0,1,0,605
1,8,2,0,0,1,-1,344
1,8,3,0,0,2,0,615
1,8,4,0,0,2,0,298
1,8,5,0,0,2,0,391
1,8,6,0,0,2,0,271
1,8,7,0,0,2,0,695
1,8,8,0,0,2,0,231
1,8,9,0,0,2,0,359
1,8,10,0,0,2,0,309
1,9,1,2,0,1,2,708
1,9,2,2,0,1,3,335
1,9,3,2,0,1,4,415
1,9,4,2,0,1,1,359
1,9,5,2,0,1,1,327
1,9,6,2,0,1,2,367
1,9,7,2,0,1,2,381
1,9,8,2,0,1,2,359
1,9,9,2,0,1,-1,383
1,9,10,2,0,1,2,431
1,10,1,0,0,1,1,608
1,10,2,0,0,1,0,310
1,10,3,0,0,1,0,317
1,10,4,0,0,1,1,358
1,10,5,0,0,1,-1,415
1,10,6,0,0,1,-2,351
1,10,7,0,0,1,1,335
1,10,8,0,0,1,2,321
1,10,9,0,0,1,1,311
1,10,10,0,0,2,0,415
1,11,1,-2,0,1,-4,816
1,11,2,-2,0,2,0,278
1,11,3,-2,0,2,0,303
1,11,4,-2,0,2,0,345
1,11,5,-2,0,2,0,298
1,11,6,-2,0,2,0,303
1,11,7,-2,0,2,0,311
1,11,8,-2,0,2,0,404
1,11,9,-2,0,2,0,324
1,11,10,-2,0,2,0,279
1,12,1,0,0,1,2,719
1,12,2,0,0,1,2,289
1,12,3,0,0,1,1,319
1,12,4,0,0,1,1,312
1,12,5,0,0,1,0,343
1,12,6,0,0,1,1,332
1,12,7,0,0,1,1,3
1,12,8,0,0,1,0,327
1,12,9,0,0,1,0,399
1,12,10,0,0,1,0,385
1,13,1,2,0,1,1,573
1,13,2,2,0,1,2,320
1,13,3,2,0,1,2,351
1,13,4,2,0,1,2,336
1,13,5,2,0,1,2,336
1,13,6,2,0,1,3,353
1,13,7,2,0,1,2,336
1,13,8,2,0,1,3,335
1,13,9,2,0,1,2,377
1,13,10,2,0,1,1,358
1,14,1,0,0,1,1,471
1,14,2,0,0,1,-1,296
1,14,3,0,0,1,0,328
1,14,4,0,0,1,0,350
1,14,5,0,0,1,0,334
1,14,6,0,0,1,-1,327
1,14,7,0,0,1,1,286
1,14,8,0,0,1,-1,320
1,14,9,0,0,1,0,319
1,14,10,0,0,1,0,358
1,15,1,2,0,1,2,519
1,15,2,2,0,1,3,302
1,15,3,2,0,1,2,360
1,15,4,2,0,1,0,294
1,15,5,2,0,1,4,319
1,15,6,2,0,1,2,351
1,15,7,2,0,1,1,360
1,15,8,2,0,1,2,319
1,15,9,2,0,1,4,424
1,15,10,2,0,1,2,423
1,16,1,-1,0,1,-1,503
1,16,2,-1,0,2,0,664
1,16,3,-1,0,2,0,295
1,16,4,-1,0,2,0,302
1,16,5,-1,0,2,0,279
1,16,6,-1,0,2,0,295
1,16,7,-1,0,2,0,296
1,16,8,-1,0,2,0,295
1,16,9,-1,0,2,0,311
1,16,10,-1,0,2,0,344
1,17,1,-2,0,1,-1,687
1,17,2,-2,0,2,0,297
1,17,3,-2,0,2,0,329
1,17,4,-2,0,2,0,366
1,17,5,-2,0,2,0,343
1,17,6,-2,0,2,0,303
1,17,7,-2,0,2,0,296
1,17,8,-2,0,2,0,319
1,17,9,-2,0,2,0,303
1,17,10,-2,0,2,0,335
1,18,1,-1,0,1,-1,408
1,18,2,-1,0,2,0,818
1,18,3,-1,0,2,0,281
1,18,4,-1,0,2,0,296
1,18,5,-1,0,2,0,297
1,18,6,-1,0,2,0,311
1,18,7,-1,0,2,0,304
1,18,8,-1,0,2,0,519
1,18,9,-1,0,2,0,329
1,18,10,-1,0,2,0,334
1,19,1,2,0,1,3,464
1,19,2,2,0,1,2,335
1,19,3,2,0,1,2,318
1,19,4,2,0,1,0,376
1,19,5,2,0,1,0,361
1,19,6,2,0,1,3,661
1,19,7,2,0,1,2,399
1,19,8,2,0,1,3,311
1,19,9,2,0,1,3,354
1,19,10,2,0,1,1,738
1,20,1,-1,0,1,-2,561
1,20,2,-1,0,2,0,302
1,20,3,-1,0,2,0,295
1,20,4,-1,0,2,0,362
1,20,5,-1,0,2,0,335
1,20,6,-1,0,2,0,303
1,20,7,-1,0,2,0,351
1,20,8,-1,0,2,0,303
1,20,9,-1,0,2,0,331
1,20,10,-1,0,2,0,351
2,1,1,0,0,1,-1,1722
2,1,2,0,0,1,0,1325
2,1,3,0,0,1,-1,1279
2,1,4,0,0,1,0,1200
2,1,5,0,0,2,0,767
2,1,6,0,0,1,2,872
2,1,7,0,0,1,0,1183
2,1,8,0,0,1,-2,1112
2,1,9,0,0,2,0,871
2,1,10,0,0,1,3,567
2,2,1,-2,0,1,-3,968
2,2,2,-2,0,2,0,504
2,2,3,-2,0,1,-3,447
2,2,4,-2,0,2,0,637
2,2,5,-2,0,1,0,503
2,2,6,-2,0,1,-2,511
2,2,7,-2,0,1,0,632
2,2,8,-2,0,1,-1,543
2,2,9,-2,0,2,0,1632
2,2,10,-2,0,2,0,887
2,3,1,1,0,1,1,784
2,3,2,1,0,1,0,424
2,3,3,1,0,1,2,448
2,3,4,1,0,1,1,416
2,3,5,1,0,1,3,449
2,3,6,1,0,1,3,447
2,3,7,1,0,1,2,463
2,3,8,1,0,1,0,471
2,3,9,1,0,1,-1,503
2,3,10,1,0,1,2,495
2,4,1,0,0,1,1,680
2,4,2,0,0,1,-1,415
2,4,3,0,0,1,0,431
2,4,4,0,0,1,-2,432
2,4,5,0,0,1,0,422
2,4,6,0,0,1,2,415
2,4,7,0,0,1,0,448
2,4,8,0,0,1,-2,424
2,4,9,0,0,1,0,439
2,4,10,0,0,1,-1,423
2,5,1,1,0,1,0,560
2,5,2,1,0,1,2,503
2,5,3,1,0,1,1,383
2,5,4,1,0,1,2,399
2,5,5,1,0,1,1,423
2,5,6,1,0,1,1,415
2,5,7,1,0,1,0,431
2,5,8,1,0,1,0,415
2,5,9,1,0,1,1,439
2,5,10,1,0,1,1,451
2,6,1,3,0,1,1,682
2,6,2,3,0,1,3,376
2,6,3,3,0,1,2,384
2,6,4,3,0,1,5,391
2,6,5,3,0,1,4,399
2,6,6,3,0,1,4,372
2,6,7,3,0,1,2,382
2,6,8,3,0,1,4,439
2,6,9,3,0,1,3,423
2,6,10,3,0,1,3,391
2,7,1,0,0,1,1,664
2,7,2,0,0,1,-2,366
2,7,3,0,0,1,1,344
2,7,4,0,0,1,0,375
2,7,5,0,0,1,1,391
2,7,6,0,0,1,0,344
2,7,7,0,0,1,0,368
2,7,8,0,0,1,0,375
2,7,9,0,0,1,0,352
2,7,10,0,0,1,0,352
2,8,1,0,0,1,0,736
2,8,2,0,0,1,-1,375
2,8,3,0,0,1,1,463
2,8,4,0,0,1,0,384
2,8,5,0,0,1,-1,343
2,8,6,0,0,1,1,343
2,8,7,0,0,1,0,341
2,8,8,0,0,1,1,327
2,8,9,0,0,1,0,367
2,8,10,0,0,1,-2,367
2,9,1,1,0,1,0,608
2,9,2,1,0,1,1,367
2,9,3,1,0,1,2,359
2,9,4,1,0,1,1,383
2,9,5,1,0,1,1,359
2,9,6,1,0,1,0,391
2,9,7,1,0,1,2,397
2,9,8,1,0,1,1,367
2,9,9,1,0,1,2,360
2,9,10,1,0,1,2,368
2,10,1,0,0,1,0,535
2,10,2,0,0,1,-1,376
2,10,3,0,0,1,0,407
2,10,4,0,0,1,-1,343
2,10,5,0,0,1,-1,359
2,10,6,0,0,1,1,583
2,10,7,0,0,1,0,483
2,10,8,0,0,2,0,367
2,10,9,0,0,2,0,399
2,10,10,0,0,2,0,383
2,11,1,-2,0,1,-2,576
2,11,2,-2,0,1,-1,408
2,11,3,-2,0,2,0,384
2,11,4,-2,0,1,-2,592
2,11,5,-2,0,2,0,392
2,11,6,-2,0,2,0,352
2,11,7,-2,0,2,0,351
2,11,8,-2,0,2,0,359
2,11,9,-2,0,2,0,375
2,11,10,-2,0,2,0,367
2,12,1,2,0,1,3,584
2,12,2,2,0,1,3,343
2,12,3,2,0,1,2,375
2,12,4,2,0,1,2,335
2,12,5,2,0,1,3,367
2,12,6,2,0,1,3,376
2,12,7,2,0,1,2,343
2,12,8,2,0,1,3,375
2,12,9,2,0,1,3,359
2,12,10,2,0,1,3,359
2,13,1,0,0,1,0,552
2,13,2,0,0,1,1,344
2,13,3,0,0,1,-1,328
2,13,4,0,0,1,0,352
2,13,5,0,0,1,0,327
2,13,6,0,0,1,0,335
2,13,7,0,0,1,-1,360
2,13,8,0,0,1,0,351
2,13,9,0,0,1,-1,335
2,13,10,0,0,1,2,359
2,14,1,0,0,1,-2,496
2,14,2,0,0,2,0,879
2,14,3,0,0,2,0,351
2,14,4,0,0,2,0,327
2,14,5,0,0,2,0,319
2,14,6,0,0,2,0,319
2,14,7,0,0,2,0,343
2,14,8,0,0,2,0,311
2,14,9,0,0,2,0,334
2,14,10,0,0,2,0,328
2,15,1,1,0,1,1,640
2,15,2,1,0,1,2,344
2,15,3,1,0,1,0,335
2,15,4,1,0,1,0,328
2,15,5,1,0,1,3,335
2,15,6,1,0,1,3,344
2,15,7,1,0,1,1,335
2,15,8,1,0,1,1,367
2,15,9,1,0,1,4,351
2,15,10,1,0,1,0,407
2,16,1,1,0,1,-1,584
2,16,2,1,0,1,1,431
2,16,3,1,0,1,3,367
2,16,4,1,0,1,1,311
2,16,5,1,0,1,1,320
2,16,6,1,0,1,0,327
2,16,7,1,0,1,0,383
2,16,8,1,0,1,2,352
2,16,9,1,0,1,0,320
2,16,10,1,0,1,3,327
2,17,1,0,0,1,1,543
2,17,2,0,0,1,0,352
2,17,3,0,0,1,0,360
2,17,4,0,0,1,2,333
2,17,5,0,0,1,1,296
2,17,6,0,0,1,-2,327
2,17,7,0,0,1,0,319
2,17,8,0,0,1,1,319
2,17,9,0,0,1,0,335
2,17,10,0,0,1,1,311
2,18,1,0,0,1,0,496
2,18,2,0,0,1,1,319
2,18,3,0,0,1,0,327
2,18,4,0,0,1,0,311
2,18,5,0,0,1,0,319
2,18,6,0,0,1,1,336
2,18,7,0,0,1,0,294
2,18,8,0,0,1,0,303
2,18,9,0,0,1,-1,335
2,18,10,0,0,1,0,297
2,19,1,-1,0,1,1,568
2,19,2,-1,0,1,-2,360
2,19,3,-1,0,1,0,392
2,19,4,-1,0,1,-2,336
2,19,5,-1,0,1,0,399
2,19,6,-1,0,2,0,1039
2,19,7,-1,0,2,0,383
2,19,8,-1,0,2,0,367
2,19,9,-1,0,2,0,311
2,19,10,-1,0,2,0,310
2,20,1,0,0,1,0,816
2,20,2,0,0,1,2,639
2,20,3,0,0,1,0,495
2,20,4,0,0,1,0,335
2,20,5,0,0,1,-2,319
2,20,6,0,0,1,0,358
2,20,7,0,0,1,0,328
2,20,8,0,0,1,0,353
2,20,9,0,0,1,-1,294
2,20,10,0,0,1,0,319
3,1,1,1,0,1,-1,1140
3,1,2,1,0,2,0,1002
3,1,3,1,0,1,0,543
3,1,4,1,0,1,1,511
3,1,5,1,0,1,0,495
3,1,6,1,0,1,0,679
3,1,7,1,0,2,0,534
3,1,8,1,0,1,0,448
3,1,9,1,0,1,0,495
3,1,10,1,0,1,2,544
3,2,1,1,0,1,2,746
3,2,2,1,0,1,1,615
3,2,3,1,0,1,1,609
3,2,4,1,0,1,1,511
3,2,5,1,0,1,2,504
3,2,6,1,0,1,1,512
3,2,7,1,0,1,0,464
3,2,8,1,0,1,1,399
3,2,9,1,0,1,1,432
3,2,10,1,0,1,0,423
3,3,1,1,0,2,0,518
3,3,2,1,0,1,1,415
3,3,3,1,0,1,0,407
3,3,4,1,0,1,1,455
3,3,5,1,0,1,1,414
3,3,6,1,0,1,2,424
3,3,7,1,0,1,1,407
3,3,8,1,0,1,2,464
3,3,9,1,0,1,1,447
3,3,10,1,0,1,2,414
3,4,1,0,0,1,-1,552
3,4,2,0,0,1,0,413
3,4,3,0,0,1,0,399
3,4,4,0,0,1,2,417
3,4,5,0,0,1,0,431
3,4,6,0,0,1,-2,411
3,4,7,0,0,1,0,415
3,4,8,0,0,1,0,383
3,4,9,0,0,1,1,400
3,4,10,0,0,1,0,374
3,5,1,-1,0,1,-1,584
3,5,2,-1,0,1,-1,416
3,5,3,-1,0,2,0,543
3,5,4,-1,0,2,0,399
3,5,5,-1,0,1,0,357
3,5,6,-1,0,1,-2,373
3,5,7,-1,0,2,0,464
3,5,8,-1,0,2,0,511
3,5,9,-1,0,2,0,1007
3,5,10,-1,0,1,0,951
3,6,1,-2,0,1,-2,441
3,6,2,-2,0,1,-2,431
3,6,3,-2,0,1,-3,400
3,6,4,-2,0,2,0,415
3,6,5,-2,0,2,0,401
3,6,6,-2,0,2,0,393
3,6,7,-2,0,2,0,440
3,6,8,-2,0,2,0,455
3,6,9,-2,0,2,0,503
3,6,10,-2,0,1,-4,503
3,7,1,2,0,1,3,552
3,7,2,2,0,1,1,415
3,7,3,2,0,1,1,396
3,7,4,2,0,1,2,368
3,7,5,2,0,1,3,448
3,7,6,2,0,1,2,431
3,7,7,2,0,1,3,488
3,7,8,2,0,1,2,495
3,7,9,2,0,1,2,632
3,7,10,2,0,1,2,503
3,8,1,-1,0,1,-1,400
3,8,2,-1,0,2,0,310
3,8,3,-1,0,1,-1,400
3,8,4,-1,0,2,0,335
3,8,5,-1,0,2,0,392
3,8,6,-1,0,2,0,334
3,8,7,-1,0,1,-2,426
3,8,8,-1,0,2,0,375
3,8,9,-1,0,2,0,359
3,8,10,-1,0,2,0,352
3,9,1,0,0,1,-2,648
3,9,2,0,0,2,0,481
3,9,3,0,0,1,0,383
3,9,4,0,0,2,0,415
3,9,5,0,0,1,1,359
3,9,6,0,0,2,0,471
3,9,7,0,0,1,-1,416
3,9,8,0,0,2,0,399
3,9,9,0,0,1,-1,359
3,9,10,0,0,2,0,311
3,10,1,2,0,1,2,488
3,10,2,2,0,1,3,398
3,10,3,2,0,1,1,402
3,10,4,2,0,1,2,360
3,10,5,2,0,1,4,352
3,10,6,2,0,1,0,376
3,10,7,2,0,1,2,431
3,10,8,2,0,1,3,414
3,10,9,2,0,1,1,416
3,10,10,2,0,1,1,393
3,11,1,1,0,1,0,672
3,11,2,1,0,2,0,415
3,11,3,1,0,1,1,367
3,11,4,1,0,1,1,343
3,11,5,1,0,1,2,374
3,11,6,1,0,1,1,336
3,11,7,1,0,1,1,360
3,11,8,1,0,1,1,480
3,11,9,1,0,1,2,357
3,11,10,1,0,1,2,376
3,12,1,2,0,1,3,728
3,12,2,2,0,1,3,327
3,12,3,2,0,1,1,542
3,12,4,2,0,1,2,3567
3,12,5,2,0,1,2,375
3,12,6,2,0,1,1,487
3,12,7,2,0,1,2,376
3,12,8,2,0,1,3,343
3,12,9,2,0,1,1,359
3,12,10,2,0,1,2,399
3,13,1,-3,0,1,-3,570
3,13,2,-3,0,2,0,374
3,13,3,-3,0,1,-4,887
3,13,4,-3,0,2,0,328
3,13,5,-3,0,2,0,311
3,13,6,-3,0,2,0,343
3,13,7,-3,0,2,0,304
3,13,8,-3,0,2,0,322
3,13,9,-3,0,2,0,342
3,13,10,-3,0,1,-4,328
3,14,1,0,0,1,0,762
3,14,2,0,0,1,-1,296
3,14,3,0,0,2,0,496
3,14,4,0,0,1,-1,376
3,14,5,0,0,2,0,336
3,14,6,0,0,2,0,352
3,14,7,0,0,2,0,344
3,14,8,0,0,2,0,312
3,14,9,0,0,2,0,335
3,14,10,0,0,1,1,360
3,15,1,0,0,1,0,690
3,15,2,0,0,1,-1,311
3,15,3,0,0,2,0,407
3,15,4,0,0,1,-1,344
3,15,5,0,0,2,0,343
3,15,6,0,0,2,0,384
3,15,7,0,0,1,0,393
3,15,8,0,0,1,0,359
3,15,9,0,0,1,2,376
3,15,10,0,0,1,-2,391
3,16,1,0,0,1,3,793
3,16,2,0,0,1,-1,336
3,16,3,0,0,1,0,407
3,16,4,0,0,1,1,3792
3,16,5,0,0,1,0,332
3,16,6,0,0,1,2,367
3,16,7,0,0,1,0,352
3,16,8,0,0,1,0,422
3,16,9,0,0,1,-1,354
3,16,10,0,0,1,0,423
3,17,1,2,0,1,3,528
3,17,2,2,0,1,3,385
3,17,3,2,0,1,3,345
3,17,4,2,0,1,2,359
3,17,5,2,0,1,1,1375
3,17,6,2,0,1,4,376
3,17,7,2,0,1,1,328
3,17,8,2,0,1,3,385
3,17,9,2,0,1,0,392
3,17,10,2,0,1,3,447
3,18,1,0,0,1,1,633
3,18,2,0,0,1,2,327
3,18,3,0,0,1,-1,344
3,18,4,0,0,1,0,351
3,18,5,0,0,1,-1,359
3,18,6,0,0,1,0,352
3,18,7,0,0,1,-2,369
3,18,8,0,0,2,0,399
3,18,9,0,0,2,0,343
3,18,10,0,0,1,1,402
3,19,1,0,0,1,1,537
3,19,2,0,0,1,0,313
3,19,3,0,0,1,-2,1280
3,19,4,0,0,1,0,360
3,19,5,0,0,1,1,328
3,19,6,0,0,1,-1,351
3,19,7,0,0,2,0,455
3,19,8,0,0,2,0,359
3,19,9,0,0,1,-3,416
3,19,10,0,0,2,0,350
3,20,1,0,0,1,-1,528
3,20,2,0,0,1,1,319
3,20,3,0,0,1,1,352
3,20,4,0,0,1,-1,368
3,20,5,0,0,1,0,351
3,20,6,0,0,1,0,408
3,20,7,0,0,2,0,391
3,20,8,0,0,1,-1,424
3,20,9,0,0,2,0,449
3,20,10,0,0,1,2,414
4,1,1,0,0,2,0,3371
4,1,2,0,0,1,0,682
4,1,3,0,0,1,0,737
4,1,4,0,0,2,0,594
4,1,5,0,0,2,0,1296
4,1,6,0,0,2,0,682
4,1,7,0,0,2,0,694
4,1,8,0,0,1,-1,550
4,1,9,0,0,2,0,545
4,1,10,0,0,2,0,838
4,2,1,0,0,1,1,653
4,2,2,0,0,1,0,598
4,2,3,0,0,1,-2,558
4,2,4,0,0,2,0,551
4,2,5,0,0,2,0,623
4,2,6,0,0,2,0,844
4,2,7,0,0,2,0,538
4,2,8,0,0,2,0,732
4,2,9,0,0,2,0,586
4,2,10,0,0,2,0,903
4,3,1,-1,0,1,-1,693
4,3,2,-1,0,1,0,439
4,3,3,-1,0,1,-1,363
4,3,4,-1,0,1,0,426
4,3,5,-1,0,1,0,392
4,3,6,-1,0,2,0,460
4,3,7,-1,0,1,2,485
4,3,8,-1,0,1,-1,426
4,3,9,-1,0,1,-2,352
4,3,10,-1,0,1,-1,318
4,4,1,1,0,1,3,586
4,4,2,1,0,1,0,449
4,4,3,1,0,2,0,384
4,4,4,1,0,2,0,370
4,4,5,1,0,2,0,464
4,4,6,1,0,2,0,380
4,4,7,1,0,2,0,377
4,4,8,1,0,2,0,390
4,4,9,1,0,2,0,412
4,4,10,1,0,2,0,377
4,5,1,0,0,1,-1,582
4,5,2,0,0,1,0,462
4,5,3,0,0,1,0,399
4,5,4,0,0,1,0,346
4,5,5,0,0,1,0,369
4,5,6,0,0,1,0,495
4,5,7,0,0,1,0,483
4,5,8,0,0,2,0,374
4,5,9,0,0,2,0,327
4,5,10,0,0,2,0,393
4,6,1,0,0,1,-1,516
4,6,2,0,0,2,0,359
4,6,3,0,0,2,0,349
4,6,4,0,0,2,0,383
4,6,5,0,0,2,0,329
4,6,6,0,0,2,0,364
4,6,7,0,0,2,0,338
4,6,8,0,0,2,0,327
4,6,9,0,0,2,0,346
4,6,10,0,0,1,1,416
4,7,1,1,0,1,1,818
4,7,2,1,0,2,0,352
4,7,3,1,0,2,0,336
4,7,4,1,0,1,0,337
4,7,5,1,0,2,0,358
4,7,6,1,0,2,0,337
4,7,7,1,0,2,0,310
4,7,8,1,0,2,0,360
4,7,9,1,0,2,0,343
4,7,10,1,0,1,1,359
4,8,1,0,0,1,1,727
4,8,2,0,0,2,0,385
4,8,3,0,0,2,0,365
4,8,4,0,0,2,0,364
4,8,5,0,0,1,2,362
4,8,6,0,0,2,0,395
4,8,7,0,0,2,0,368
4,8,8,0,0,2,0,375
4,8,9,0,0,1,1,352
4,8,10,0,0,2,0,407
4,9,1,0,0,1,0,696
4,9,2,0,0,2,0,348
4,9,3,0,0,1,1,441
4,9,4,0,0,2,0,355
4,9,5,0,0,2,0,348
4,9,6,0,0,2,0,335
4,9,7,0,0,1,1,366
4,9,8,0,0,2,0,355
4,9,9,0,0,2,0,378
4,9,10,0,0,1,0,395
4,10,1,-1,0,1,-2,560
4,10,2,-1,0,2,0,612
4,10,3,-1,0,2,0,372
4,10,4,-1,0,1,0,474
4,10,5,-1,0,1,0,389
4,10,6,-1,0,1,-1,343
4,10,7,-1,0,2,0,371
4,10,8,-1,0,1,-2,394
4,10,9,-1,0,2,0,415
4,10,10,-1,0,2,0,374
4,11,1,0,0,1,1,466
4,11,2,0,0,2,0,435
4,11,3,0,0,2,0,372
4,11,4,0,0,1,0,525
4,11,5,0,0,1,-1,427
4,11,6,0,0,2,0,440
4,11,7,0,0,1,0,444
4,11,8,0,0,1,0,361
4,11,9,0,0,1,0,580
4,11,10,0,0,1,-1,423
4,12,1,-1,0,1,0,575
4,12,2,-1,0,1,-4,349
4,12,3,-1,0,1,-2,505
4,12,4,-1,0,1,-1,539
4,12,5,-1,0,1,0,359
4,12,6,-1,0,1,-2,528
4,12,7,-1,0,1,-2,474
4,12,8,-1,0,1,-2,7376
4,12,9,-1,0,2,0,518
4,12,10,-1,0,2,0,416
4,13,1,-1,0,1,-3,484
4,13,2,-1,0,2,0,435
4,13,3,-1,0,1,0,539
4,13,4,-1,0,1,-1,369
4,13,5,-1,0,1,-2,349
4,13,6,-1,0,1,-1,351
4,13,7,-1,0,2,0,402
4,13,8,-1,0,1,-2,394
4,13,9,-1,0,2,0,605
4,13,10,-1,0,2,0,438
4,14,1,0,0,1,-1,683
4,14,2,0,0,2,0,529
4,14,3,0,0,2,0,542
4,14,4,0,0,2,0,516
4,14,5,0,0,2,0,528
4,14,6,0,0,1,-1,382
4,14,7,0,0,2,0,441
4,14,8,0,0,1,0,380
4,14,9,0,0,2,0,409
4,14,10,0,0,2,0,399
4,15,1,-1,0,1,0,678
4,15,2,-1,0,2,0,427
4,15,3,-1,0,1,0,482
4,15,4,-1,0,1,1,409
4,15,5,-1,0,2,0,491
4,15,6,-1,0,1,0,482
4,15,7,-1,0,2,0,392
4,15,8,-1,0,1,-1,382
4,15,9,-1,0,2,0,574
4,15,10,-1,0,1,-1,532
4,16,1,0,0,1,-1,796
4,16,2,0,0,2,0,487
4,16,3,0,0,1,0,416
4,16,4,0,0,2,0,435
4,16,5,0,0,1,-1,393
4,16,6,0,0,2,0,369
4,16,7,0,0,1,1,517
4,16,8,0,0,2,0,471
4,16,9,0,0,2,0,396
4,16,10,0,0,2,0,356
4,17,1,-1,0,1,-1,1223
4,17,2,-1,0,2,0,377
4,17,3,-1,0,1,-1,371
4,17,4,-1,0,2,0,359
4,17,5,-1,0,1,0,541
4,17,6,-1,0,2,0,494
4,17,7,-1,0,1,-2,427
4,17,8,-1,0,2,0,369
4,17,9,-1,0,1,1,390
4,17,10,-1,0,2,0,415
4,18,1,2,0,1,1,581
4,18,2,2,0,2,0,807
4,18,3,2,0,1,3,512
4,18,4,2,0,2,0,427
4,18,5,2,0,2,0,335
4,18,6,2,0,2,0,366
4,18,7,2,0,2,0,353
4,18,8,2,0,2,0,374
4,18,9,2,0,2,0,344
4,18,10,2,0,1,1,425
4,19,1,0,0,1,0,700
4,19,2,0,0,2,0,326
4,19,3,0,0,1,-1,379
4,19,4,0,0,2,0,371
4,19,5,0,0,1,-1,399
4,19,6,0,0,2,0,384
4,19,7,0,0,1,0,393
4,19,8,0,0,2,0,410
4,19,9,0,0,1,0,382
4,19,10,0,0,2,0,360
4,20,1,0,0,1,-3,653
4,20,2,0,0,2,0,389
4,20,3,0,0,1,0,366
4,20,4,0,0,2,0,337
4,20,5,0,0,1,1,353
4,20,6,0,0,2,0,364
4,20,7,0,0,1,-3,363
4,20,8,0,0,2,0,354
4,20,9,0,0,1,0,536
4,20,10,0,0,2,0,532
5,1,1,2,0,1,1,1557
5,1,2,2,0,2,0,1576
5,1,3,2,0,1,1,766
5,1,4,2,0,1,1,433
5,1,5,2,0,2,0,750
5,1,6,2,0,1,1,410
5,1,7,2,0,1,3,449
5,1,8,2,0,1,3,411
5,1,9,2,0,1,2,817
5,1,10,2,0,1,4,472
5,2,1,-1,0,2,0,584
5,2,2,-1,0,1,0,170
5,2,3,-1,0,2,0,414
5,2,4,-1,0,1,-2,357
5,2,5,-1,0,1,0,3433
5,2,6,-1,0,2,0,353
5,2,7,-1,0,1,-2,410
5,2,8,-1,0,2,0,451
5,2,9,-1,0,2,0,346
5,2,10,-1,0,2,0,592
5,3,1,0,0,1,-2,799
5,3,2,0,0,2,0,340
5,3,3,0,0,2,0,450
5,3,4,0,0,2,0,1100
5,3,5,0,0,2,0,430
5,3,6,0,0,2,0,420
5,3,7,0,0,1,0,395
5,3,8,0,0,1,2,189
5,3,9,0,0,1,0,360
5,3,10,0,0,1,0,485
5,4,1,-1,0,1,0,804
5,4,2,-1,0,2,0,457
5,4,3,-1,0,1,-1,424
5,4,4,-1,0,2,0,445
5,4,5,-1,0,1,0,655
5,4,6,-1,0,1,-1,237
5,4,7,-1,0,2,0,407
5,4,8,-1,0,1,0,406
5,4,9,-1,0,1,-1,897
5,4,10,-1,0,2,0,332
5,5,1,-2,0,1,-2,503
5,5,2,-2,0,2,0,365
5,5,3,-2,0,1,-3,790
5,5,4,-2,0,2,0,346
5,5,5,-2,0,1,-1,426
5,5,6,-2,0,2,0,365
5,5,7,-2,0,1,-1,405
5,5,8,-2,0,2,0,453
5,5,9,-2,0,1,-4,486
5,5,10,-2,0,2,0,600
5,6,1,0,0,1,0,954
5,6,2,0,0,2,0,401
5,6,3,0,0,1,0,480
5,6,4,0,0,2,0,402
5,6,5,0,0,1,1,481
5,6,6,0,0,1,0,395
5,6,7,0,0,2,0,591
5,6,8,0,0,1,-1,394
5,6,9,0,0,2,0,391
5,6,10,0,0,1,0,199
5,7,1,-2,0,2,0,986
5,7,2,-2,0,1,-2,390
5,7,3,-2,0,2,0,782
5,7,4,-2,0,1,-2,1187
5,7,5,-2,0,2,0,563
5,7,6,-2,0,1,-1,1.2706e+05
5,7,7,-2,0,2,0,389
5,7,8,-2,0,1,-2,434
5,7,9,-2,0,2,0,490
5,7,10,-2,0,1,-3,1690
5,8,1,-1,0,2,0,576
5,8,2,-1,0,1,-2,644
5,8,3,-1,0,2,0,419
5,8,4,-1,0,2,0,496
5,8,5,-1,0,1,0,572
5,8,6,-1,0,1,0,466
5,8,7,-1,0,2,0,1815
5,8,8,-1,0,1,-1,495
5,8,9,-1,0,2,0,400
5,8,10,-1,0,1,1,467
5,9,1,-1,0,2,0,647
5,9,2,-1,0,1,-1,646
5,9,3,-1,0,2,0,523
5,9,4,-1,0,1,-3,464
5,9,5,-1,0,2,0,420
5,9,6,-1,0,2,0,382
5,9,7,-1,0,1,-2,427
5,9,8,-1,0,2,0,420
5,9,9,-1,0,2,0,444
5,9,10,-1,0,2,0,379
5,10,1,0,0,2,0,631
5,10,2,0,0,1,0,434
5,10,3,0,0,1,-1,497
5,10,4,0,0,2,0,355
5,10,5,0,0,1,-1,794
5,10,6,0,0,2,0,386
5,10,7,0,0,2,0,340
5,10,8,0,0,2,0,336
5,10,9,0,0,2,0,365
5,10,10,0,0,2,0,644
5,11,1,0,0,2,0,427
5,11,2,0,0,1,0,376
5,11,3,0,0,1,0,374
5,11,4,0,0,2,0,1045
5,11,5,0,0,1,0,463
5,11,6,0,0,2,0,504
5,11,7,0,0,1,2,165
5,11,8,0,0,1,0,561
5,11,9,0,0,2,0,513
5,11,10,0,0,1,0,462
5,12,1,1,0,1,2,950
5,12,2,1,0,2,0,357
5,12,3,1,0,1,1,335
5,12,4,1,0,2,0,373
5,12,5,1,0,1,1,473
5,12,6,1,0,2,0,452
5,12,7,1,0,1,1,432
5,12,8,1,0,1,-1,336
5,12,9,1,0,2,0,557
5,12,10,1,0,1,1,346
5,13,1,1,0,1,-2,906
5,13,2,1,0,2,0,545
5,13,3,1,0,1,2,469
5,13,4,1,0,1,1,542
5,13,5,1,0,2,0,702
5,13,6,1,0,1,2,498
5,13,7,1,0,1,1,626
5,13,8,1,0,2,0,515
5,13,9,1,0,1,1,432
5,13,10,1,0,1,-1,732
5,14,1,0,0,1,0,1599
5,14,2,0,0,2,0,377
5,14,3,0,0,1,0,346
5,14,4,0,0,2,0,404
5,14,5,0,0,1,1,379
5,14,6,0,0,1,0,362
5,14,7,0,0,1,-1,450
5,14,8,0,0,2,0,445
5,14,9,0,0,1,1,375
5,14,10,0,0,1,-1,437
5,15,1,-1,0,1,-1,528
5,15,2,-1,0,2,0,376
5,15,3,-1,0,1,-1,433
5,15,4,-1,0,2,0,343
5,15,5,-1,0,2,0,332
5,15,6,-1,0,2,0,280
5,15,7,-1,0,2,0,376
5,15,8,-1,0,2,0,540
5,15,9,-1,0,2,0,427
5,15,10,-1,0,2,0,411
5,16,1,-3,0,1,-3,2038
5,16,2,-3,0,2,0,372
5,16,3,-3,0,1,-5,764
5,16,4,-3,0,2,0,351
5,16,5,-3,0,2,0,544
5,16,6,-3,0,2,0,358
5,16,7,-3,0,2,0,395
5,16,8,-3,0,2,0,368
5,16,9,-3,0,1,-5,334
5,16,10,-3,0,2,0,345
5,17,1,0,0,2,0,522
5,17,2,0,0,1,1,378
5,17,3,0,0,1,1,335
5,17,4,0,0,1,0,340
5,17,5,0,0,2,0,440
5,17,6,0,0,1,0,476
5,17,7,0,0,2,0,391
5,17,8,0,0,1,0,328
5,17,9,0,0,1,-1,636
5,17,10,0,0,1,1,472
5,18,1,0,0,2,0,429
5,18,2,0,0,1,-1,199
5,18,3,0,0,1,2,328
5,18,4,0,0,2,0,394
5,18,5,0,0,1,0,410
5,18,6,0,0,1,0,387
5,18,7,0,0,2,0,430
5,18,8,0,0,1,0,524
5,18,9,0,0,2,0,7660
5,18,10,0,0,1,0,482
5,19,1,-1,0,2,0,452
5,19,2,-1,0,1,0,192
5,19,3,-1,0,1,0,410
5,19,4,-1,0,2,0,361
5,19,5,-1,0,1,0,366
5,19,6,-1,0,2,0,546
5,19,7,-1,0,1,-1,404
5,19,8,-1,0,2,0,569
5,19,9,-1,0,2,0,281
5,19,10,-1,0,2,0,5
5,20,1,1,0,1,0,533
5,20,2,1,0,2,0,458
5,20,3,1,0,1,1,365
5,20,4,1,0,1,1,3210
5,20,5,1,0,2,0,594
5,20,6,1,0,1,0,381
5,20,7,1,0,1,1,417
5,20,8,1,0,2,0,369
5,20,9,1,0,1,2,401
5,20,10,1,0,1,2,543
6,1,1,1,0,1,1,924
6,1,2,1,0,2,0,526
6,1,3,1,0,1,1,392
6,1,4,1,0,1,0,390
6,1,5,1,0,2,0,399
6,1,6,1,0,1,3,335
6,1,7,1,0,1,1,606
6,1,8,1,0,1,1,581
6,1,9,1,0,2,0,622
6,1,10,1,0,1,3,482
6,2,1,-1,0,2,0,436
6,2,2,-1,0,1,-2,483
6,2,3,-1,0,2,0,356
6,2,4,-1,0,2,0,386
6,2,5,-1,0,1,0,323
6,2,6,-1,0,1,0,455
6,2,7,-1,0,2,0,311
6,2,8,-1,0,1,-1,401
6,2,9,-1,0,2,0,318
6,2,10,-1,0,2,0,277
6,3,1,2,0,2,0,393
6,3,2,2,0,1,2,369
6,3,3,2,0,1,1,304
6,3,4,2,0,1,1,317
6,3,5,2,0,1,2,324
6,3,6,2,0,1,0,317
6,3,7,2,0,1,1,366
6,3,8,2,0,1,4,357
6,3,9,2,0,1,3,299
6,3,10,2,0,1,2,317
6,4,1,1,0,2,0,583
6,4,2,1,0,1,1,446
6,4,3,1,0,1,2,273
6,4,4,1,0,1,-1,227
6,4,5,1,0,2,0,419
6,4,6,1,0,2,0,259
6,4,7,1,0,2,0,205
6,4,8,1,0,1,1,348
6,4,9,1,0,1,2,252
6,4,10,1,0,1,1,212
6,5,1,-1,0,2,0,607
6,5,2,-1,0,2,0,240
6,5,3,-1,0,2,0,188
6,5,4,-1,0,2,0,185
6,5,5,-1,0,2,0,195
6,5,6,-1,0,1,0,828
6,5,7,-1,0,1,1,225
6,5,8,-1,0,1,-1,182
6,5,9,-1,0,1,-1,201
6,5,10,-1,0,2,0,209
6,6,1,-1,0,2,0,678
6,6,2,-1,0,2,0,227
6,6,3,-1,0,2,0,200
6,6,4,-1,0,2,0,218
6,6,5,-1,0,1,-1,258
6,6,6,-1,0,1,-1,266
6,6,7,-1,0,2,0,272
6,6,8,-1,0,2,0,227
6,6,9,-1,0,2,0,221
6,6,10,-1,0,2,0,233
6,7,1,1,0,2,0,587
6,7,2,1,0,1,0,325
6,7,3,1,0,1,1,281
6,7,4,1,0,1,1,273
6,7,5,1,0,1,1,263
6,7,6,1,0,1,2,272
6,7,7,1,0,1,2,240
6,7,8,1,0,1,2,282
6,7,9,1,0,1,0,285
6,7,10,1,0,1,0,309
6,8,1,-2,0,2,0,609
6,8,2,-2,0,2,0,267
6,8,3,-2,0,2,0,282
6,8,4,-2,0,2,0,272
6,8,5,-2,0,2,0,256
6,8,6,-2,0,2,0,293
6,8,7,-2,0,1,-2,289
6,8,8,-2,0,1,-3,304
6,8,9,-2,0,2,0,295
6,8,10,-2,0,2,0,207
6,9,1,-1,0,2,0,513
6,9,2,-1,0,2,0,378
6,9,3,-1,0,1,-2,293
6,9,4,-1,0,1,1,329
6,9,5,-1,0,1,0,314
6,9,6,-1,0,2,0,332
6,9,7,-1,0,2,0,509
6,9,8,-1,0,2,0,234
6,9,9,-1,0,2,0,246
6,9,10,-1,0,2,0,263
6,10,1,0,0,2,0,493
6,10,2,0,0,2,0,249
6,10,3,0,0,1,1,251
6,10,4,0,0,1,-1,264
6,10,5,0,0,1,0,289
6,10,6,0,0,1,-1,279
6,10,7,0,0,2,0,366
6,10,8,0,0,2,0,226
6,10,9,0,0,2,0,214
6,10,10,0,0,2,0,261
6,11,1,-1,0,2,0,444
6,11,2,-1,0,2,0,228
6,11,3,-1,0,2,0,232
6,11,4,-1,0,2,0,240
6,11,5,-1,0,2,0,221
6,11,6,-1,0,2,0,233
6,11,7,-1,0,1,-1,278
6,11,8,-1,0,1,0,276
6,11,9,-1,0,1,-2,417
6,11,10,-1,0,2,0,352
6,12,1,0,0,2,0,423
6,12,2,0,0,2,0,232
6,12,3,0,0,2,0,219
6,12,4,0,0,2,0,236
6,12,5,0,0,2,0,579
6,12,6,0,0,1,0,275
6,12,7,0,0,1,0,384
6,12,8,0,0,1,1,262
6,12,9,0,0,1,0,240
6,12,10,0,0,1,-1,387
6,13,1,1,0,1,1,361
6,13,2,1,0,1,2,295
6,13,3,1,0,1,2,324
6,13,4,1,0,1,1,248
6,13,5,1,0,1,1,246
6,13,6,1,0,1,3,264
6,13,7,1,0,1,3,256
6,13,8,1,0,1,2,269
6,13,9,1,0,1,2,275
6,13,10,1,0,1,3,260
6,14,1,1,0,1,1,495
6,14,2,1,0,1,0,289
6,14,3,1,0,2,0,311
6,14,4,1,0,1,0,284
6,14,5,1,0,1,1,250
6,14,6,1,0,1,1,256
6,14,7,1,0,1,2,231
6,14,8,1,0,1,-1,248
6,14,9,1,0,1,2,296
6,14,10,1,0,1,0,234
6,15,1,0,0,1,0,29810
6,15,2,0,0,1,1,377
6,15,3,0,0,1,0,224
6,15,4,0,0,1,0,221
6,15,5,0,0,2,0,238
6,15,6,0,0,2,0,233
6,15,7,0,0,2,0,199
6,15,8,0,0,1,1,199
6,15,9,0,0,1,0,194
6,15,10,0,0,1,0,180
6,16,1,0,0,1,0,548
6,16,2,0,0,1,-1,244
6,16,3,0,0,1,-1,210
6,16,4,0,0,2,0,285
6,16,5,0,0,2,0,195
6,16,6,0,0,2,0,181
6,16,7,0,0,2,0,178
6,16,8,0,0,2,0,177
6,16,9,0,0,2,0,178
6,16,10,0,0,2,0,197
6,17,1,-1,0,1,-3,598
6,17,2,-1,0,2,0,359
6,17,3,-1,0,2,0,180
6,17,4,-1,0,2,0,201
6,17,5,-1,0,2,0,215
6,17,6,-1,0,2,0,231
6,17,7,-1,0,2,0,216
6,17,8,-1,0,2,0,202
6,17,9,-1,0,2,0,180
6,17,10,-1,0,2,0,187
6,18,1,1,0,2,0,569
6,18,2,1,0,1,1,286
6,18,3,1,0,1,1,225
6,18,4,1,0,1,0,208
6,18,5,1,0,1,2,190
6,18,6,1,0,1,2,191
6,18,7,1,0,1,0,193
6,18,8,1,0,1,0,189
6,18,9,1,0,1,2,185
6,18,10,1,0,1,0,191
6,19,1,1,0,1,1,267
6,19,2,1,0,1,2,269
6,19,3,1,0,1,2,222
6,19,4,1,0,1,0,195
6,19,5,1,0,1,2,198
6,19,6,1,0,1,0,171
6,19,7,1,0,1,0,182
6,19,8,1,0,1,1,181
6,19,9,1,0,1,0,201
6,19,10,1,0,1,2,216
6,20,1,0,0,1,-1,283
6,20,2,0,0,1,-1,234
6,20,3,0,0,1,-1,234
6,20,4,0,0,2,0,321
6,20,5,0,0,2,0,199
6,20,6,0,0,2,0,198
6,20,7,0,0,2,0,206
6,20,8,0,0,2,0,215
6,20,9,0,0,2,0,207
6,20,10,0,0,2,0,224
7,1,1,0,0,1,1,862
7,1,2,0,0,1,-1,430
7,1,3,0,0,1,0,416
7,1,4,0,0,1,1,384
7,1,5,0,0,1,1,395
7,1,6,0,0,2,0,642
7,1,7,0,0,1,0,332
7,1,8,0,0,1,0,339
7,1,9,0,0,1,0,356
7,1,10,0,0,1,1,364
7,2,1,0,0,1,0,740
7,2,2,0,0,1,0,479
7,2,3,0,0,1,1,372
7,2,4,0,0,1,1,5005
7,2,5,0,0,1,0,309
7,2,6,0,0,1,0,811
7,2,7,0,0,1,0,309
7,2,8,0,0,2,0,719
7,2,9,0,0,2,0,269
7,2,10,0,0,1,1,311
7,3,1,-1,0,1,-3,516
7,3,2,-1,0,2,0,269
7,3,3,-1,0,1,0,371
7,3,4,-1,0,1,-3,262
7,3,5,-1,0,2,0,501
7,3,6,-1,0,2,0,252
7,3,7,-1,0,2,0,232
7,3,8,-1,0,1,-1,261
7,3,9,-1,0,1,-2,331
7,3,10,-1,0,2,0,245
7,4,1,0,0,1,1,587
7,4,2,0,0,1,1,3327
7,4,3,0,0,1,0,3853
7,4,4,0,0,1,1,10978
7,4,5,0,0,1,0,356
7,4,6,0,0,1,-1,280
7,4,7,0,0,2,0,254
7,4,8,0,0,1,-1,264
7,4,9,0,0,2,0,417
7,4,10,0,0,1,-1,341
7,5,1,0,0,1,-1,689
7,5,2,0,0,2,0,452
7,5,3,0,0,1,2,663
7,5,4,0,0,1,0,263
7,5,5,0,0,1,2,293
7,5,6,0,0,1,2,271
7,5,7,0,0,1,-1,284
7,5,8,0,0,2,0,246
7,5,9,0,0,1,0,278
7,5,10,0,0,1,-1,263
7,6,1,0,0,1,1,703
7,6,2,0,0,1,0,410
7,6,3,0,0,1,1,256
7,6,4,0,0,1,0,725
7,6,5,0,0,1,0,347
7,6,6,0,0,1,0,269
7,6,7,0,0,2,0,338
7,6,8,0,0,1,0,270
7,6,9,0,0,1,0,270
7,6,10,0,0,1,0,277
7,7,1,1,0,1,1,674
7,7,2,1,0,1,-1,2474
7,7,3,1,0,2,0,305
7,7,4,1,0,1,3,224
7,7,5,1,0,1,1,286
7,7,6,1,0,1,3,232
7,7,7,1,0,1,1,256
7,7,8,1,0,1,1,310
7,7,9,1,0,1,2,633
7,7,10,1,0,1,2,471
7,8,1,1,0,1,1,509
7,8,2,1,0,1,2,230
7,8,3,1,0,1,2,233
7,8,4,1,0,1,2,541
7,8,5,1,0,1,1,239
7,8,6,1,0,1,1,277
7,8,7,1,0,1,1,264
7,8,8,1,0,1,0,317
7,8,9,1,0,1,1,542
7,8,10,1,0,1,-1,261
7,9,1,-1,0,1,-1,735
7,9,2,-1,0,2,0,249
7,9,3,-1,0,1,-2,276
7,9,4,-1,0,2,0,216
7,9,5,-1,0,2,0,239
7,9,6,-1,0,2,0,256
7,9,7,-1,0,2,0,232
7,9,8,-1,0,2,0,255
7,9,9,-1,0,2,0,455
7,9,10,-1,0,2,0,340
7,10,1,1,0,1,2,349
7,10,2,1,0,1,1,223
7,10,3,1,0,1,1,246
7,10,4,1,0,1,1,225
7,10,5,1,0,1,-1,272
7,10,6,1,0,1,2,748
7,10,7,1,0,1,1,269
7,10,8,1,0,1,1,270
7,10,9,1,0,1,3,314
7,10,10,1,0,1,0,291
7,11,1,0,0,1,2,386
7,11,2,0,0,1,2,240
7,11,3,0,0,1,-1,239
7,11,4,0,0,1,-2,332
7,11,5,0,0,2,0,350
7,11,6,0,0,1,-1,294
7,11,7,0,0,2,0,433
7,11,8,0,0,1,1,249
7,11,9,0,0,1,1,279
7,11,10,0,0,1,-1,269
7,12,1,1,0,1,2,394
7,12,2,1,0,1,3,345
7,12,3,1,0,1,3,247
7,12,4,1,0,1,2,256
7,12,5,1,0,1,0,255
7,12,6,1,0,1,-2,230
7,12,7,1,0,1,-1,458
7,12,8,1,0,2,0,209
7,12,9,1,0,1,1,264
7,12,10,1,0,1,3,277
7,13,1,1,0,1,-1,316
7,13,2,1,0,2,0,408
7,13,3,1,0,1,3,231
7,13,4,1,0,1,1,292
7,13,5,1,0,1,1,240
7,13,6,1,0,1,2,231
7,13,7,1,0,1,1,262
7,13,8,1,0,1,-1,281
7,13,9,1,0,1,2,331
7,13,10,1,0,1,2,338
7,14,1,1,0,1,1,21473
7,14,2,1,0,1,1,256
7,14,3,1,0,1,1,241
7,14,4,1,0,1,1,278
7,14,5,1,0,1,1,4030
7,14,6,1,0,1,1,223
7,14,7,1,0,1,1,232
7,14,8,1,0,1,2,246
7,14,9,1,0,1,1,255
7,14,10,1,0,1,1,500
7,15,1,-1,0,1,-1,1468
7,15,2,-1,0,1,0,241
7,15,3,-1,0,1,-1,262
7,15,4,-1,0,2,0,199
7,15,5,-1,0,2,0,200
7,15,6,-1,0,2,0,477
7,15,7,-1,0,1,0,240
7,15,8,-1,0,1,-3,293
7,15,9,-1,0,2,0,224
7,15,10,-1,0,2,0,214
7,16,1,0,0,1,1,13160
7,16,2,0,0,1,1,233
7,16,3,0,0,1,2,206
7,16,4,0,0,1,0,231
7,16,5,0,0,1,0,241
7,16,6,0,0,1,1,4009
7,16,7,0,0,1,0,215
7,16,8,0,0,1,1,239
7,16,9,0,0,1,1,222
7,16,10,0,0,1,-1,254
7,17,1,0,0,1,1,378
7,17,2,0,0,1,1,222
7,17,3,0,0,1,3,223
7,17,4,0,0,1,-1,216
7,17,5,0,0,1,0,316
7,17,6,0,0,1,2,258
7,17,7,0,0,1,1,215
7,17,8,0,0,1,-2,225
7,17,9,0,0,1,-1,216
7,17,10,0,0,2,0,679
7,18,1,1,0,1,1,580
7,18,2,1,0,1,2,233
7,18,3,1,0,1,1,208
7,18,4,1,0,1,1,323
7,18,5,1,0,1,1,255
7,18,6,1,0,1,0,248
7,18,7,1,0,1,0,247
7,18,8,1,0,1,0,269
7,18,9,1,0,1,2,437
7,18,10,1,0,1,2,280
7,19,1,1,0,1,1,348
7,19,2,1,0,1,1,286
7,19,3,1,0,1,1,238
7,19,4,1,0,1,0,416
7,19,5,1,0,1,0,260
7,19,6,1,0,1,2,253
7,19,7,1,0,1,-1,270
7,19,8,1,0,1,1,312
7,19,9,1,0,1,0,231
7,19,10,1,0,1,2,255
7,20,1,2,0,1,2,519
7,20,2,2,0,1,1,5411
7,20,3,2,0,1,2,201
7,20,4,2,0,1,2,240
7,20,5,2,0,1,3,340
7,20,6,2,0,1,2,208
7,20,7,2,0,1,1,463
7,20,8,2,0,1,1,385
7,20,9,2,0,1,2,293
7,20,10,2,0,1,0,246
8,1,1,2,0,1,1,2306
8,1,2,2,0,1,3,928
8,1,3,2,0,1,2,643
8,1,4,2,0,1,2,681
8,1,5,2,0,1,2,661
8,1,6,2,0,1,4,585
8,1,7,2,0,1,1,531
8,1,8,2,0,1,4,499
8,1,9,2,0,1,3,501
8,1,10,2,0,1,3,589
8,2,1,0,0,1,0,1403
8,2,2,0,0,1,0,552
8,2,3,0,0,1,0,772
8,2,4,0,0,2,0,542
8,2,5,0,0,1,-1,501
8,2,6,0,0,2,0,489
8,2,7,0,0,1,0,543
8,2,8,0,0,1,0,747
8,2,9,0,0,1,-2,530
8,2,10,0,0,2,0,418
8,3,1,0,0,1,2,936
8,3,2,0,0,1,0,444
8,3,3,0,0,1,1,454
8,3,4,0,0,1,0,395
8,3,5,0,0,1,1,437
8,3,6,0,0,1,-1,384
8,3,7,0,0,1,1,848
8,3,8,0,0,1,0,511
8,3,9,0,0,1,1,447
8,3,10,0,0,1,0,514
8,4,1,0,0,1,0,614
8,4,2,0,0,1,1,529
8,4,3,0,0,1,0,497
8,4,4,0,0,1,-1,457
8,4,5,0,0,1,1,1111
8,4,6,0,0,1,0,570
8,4,7,0,0,1,1,477
8,4,8,0,0,2,0,493
8,4,9,0,0,2,0,393
8,4,10,0,0,2,0,359
8,5,1,2,0,1,2,2321
8,5,2,2,0,1,1,429
8,5,3,2,0,1,2,423
8,5,4,2,0,1,3,440
8,5,5,2,0,1,2,451
8,5,6,2,0,1,3,452
8,5,7,2,0,1,1,459
8,5,8,2,0,1,2,445
8,5,9,2,0,1,2,4613
8,5,10,2,0,1,0,776
8,6,1,0,0,1,-1,570
8,6,2,0,0,1,1,401
8,6,3,0,0,1,-1,498
8,6,4,0,0,1,0,416
8,6,5,0,0,1,0,415
8,6,6,0,0,1,-1,396
8,6,7,0,0,1,1,382
8,6,8,0,0,1,1,397
8,6,9,0,0,2,0,946
8,6,10,0,0,2,0,573
8,7,1,1,0,1,2,933
8,7,2,1,0,1,2,414
8,7,3,1,0,1,0,378
8,7,4,1,0,1,2,421
8,7,5,1,0,1,0,417
8,7,6,1,0,1,0,411
8,7,7,1,0,1,1,395
8,7,8,1,0,1,0,398
8,7,9,1,0,1,2,376
8,7,10,1,0,1,0,334
8,8,1,0,0,1,-1,903
8,8,2,0,0,2,0,628
8,8,3,0,0,1,0,391
8,8,4,0,0,1,0,498
8,8,5,0,0,1,-1,454
8,8,6,0,0,1,0,466
8,8,7,0,0,1,1,444
8,8,8,0,0,1,0,516
8,8,9,0,0,1,0,400
8,8,10,0,0,1,0,470
8,9,1,0,0,1,0,1184
8,9,2,0,0,1,-1,365
8,9,3,0,0,1,0,512
8,9,4,0,0,1,-1,422
8,9,5,0,0,2,0,438
8,9,6,0,0,2,0,268
8,9,7,0,0,2,0,250
8,9,8,0,0,2,0,261
8,9,9,0,0,2,0,294
8,9,10,0,0,2,0,313
8,10,1,0,0,1,0,764
8,10,2,0,0,1,1,576
8,10,3,0,0,1,0,530
8,10,4,0,0,1,0,488
8,10,5,0,0,1,-2,475
8,10,6,0,0,1,0,575
8,10,7,0,0,1,-2,435
8,10,8,0,0,2,0,422
8,10,9,0,0,2,0,236
8,10,10,0,0,2,0,248
8,11,1,0,0,1,1,913
8,11,2,0,0,1,1,376
8,11,3,0,0,1,1,393
8,11,4,0,0,1,2,371
8,11,5,0,0,1,0,417
8,11,6,0,0,1,-1,402
8,11,7,0,0,1,0,515
8,11,8,0,0,1,-1,620
8,11,9,0,0,1,2,581
8,11,10,0,0,1,-1,587
8,12,1,0,0,1,0,894
8,12,2,0,0,1,1,353
8,12,3,0,0,1,0,370
8,12,4,0,0,1,-1,427
8,12,5,0,0,1,-1,458
8,12,6,0,0,1,-1,382
8,12,7,0,0,2,0,392
8,12,8,0,0,2,0,213
8,12,9,0,0,2,0,212
8,12,10,0,0,2,0,234
8,13,1,-1,0,1,0,1599
8,13,2,-1,0,1,-1,551
8,13,3,-1,0,1,0,399
8,13,4,-1,0,1,0,402
8,13,5,-1,0,1,-1,352
8,13,6,-1,0,2,0,541
8,13,7,-1,0,2,0,339
8,13,8,-1,0,2,0,415
8,13,9,-1,0,2,0,495
8,13,10,-1,0,2,0,664
8,14,1,-2,0,1,-2,769
8,14,2,-2,0,1,-3,363
8,14,3,-2,0,2,0,590
8,14,4,-2,0,2,0,714
8,14,5,-2,0,2,0,613
8,14,6,-2,0,2,0,2559
8,14,7,-2,0,2,0,711
8,14,8,-2,0,2,0,861
8,14,9,-2,0,2,0,423
8,14,10,-2,0,2,0,455
8,15,1,1,0,1,2,682
8,15,2,1,0,1,2,452
8,15,3,1,0,1,0,433
8,15,4,1,0,1,2,422
8,15,5,1,0,1,2,396
8,15,6,1,0,1,1,454
8,15,7,1,0,1,1,400
8,15,8,1,0,1,2,400
8,15,9,1,0,1,1,356
8,15,10,1,0,1,2,374
8,16,1,1,0,1,2,1039
8,16,2,1,0,1,1,429
8,16,3,1,0,1,1,410
8,16,4,1,0,1,1,560
8,16,5,1,0,1,1,447
8,16,6,1,0,1,2,408
8,16,7,1,0,1,0,360
8,16,8,1,0,1,1,401
8,16,9,1,0,1,1,387
8,16,10,1,0,1,1,361
8,17,1,0,0,1,-1,1036
8,17,2,0,0,1,0,926
8,17,3,0,0,1,0,512
8,17,4,0,0,1,-2,582
8,17,5,0,0,2,0,400
8,17,6,0,0,2,0,214
8,17,7,0,0,2,0,283
8,17,8,0,0,2,0,247
8,17,9,0,0,2,0,247
8,17,10,0,0,2,0,265
8,18,1,0,0,1,-1,955
8,18,2,0,0,1,0,396
8,18,3,0,0,1,0,388
8,18,4,0,0,1,2,375
8,18,5,0,0,1,0,434
8,18,6,0,0,1,0,467
8,18,7,0,0,1,2,497
8,18,8,0,0,1,-1,611
8,18,9,0,0,1,0,574
8,18,10,0,0,1,-2,445
8,19,1,-1,0,1,-2,647
8,19,2,-1,0,1,-1,411
8,19,3,-1,0,1,-1,371
8,19,4,-1,0,2,0,385
8,19,5,-1,0,2,0,190
8,19,6,-1,0,2,0,205
8,19,7,-1,0,2,0,214
8,19,8,-1,0,2,0,246
8,19,9,-1,0,2,0,231
8,19,10,-1,0,2,0,238
8,20,1,-2,0,1,-1,3886
8,20,2,-2,0,1,-3,360
8,20,3,-2,0,2,0,470
8,20,4,-2,0,2,0,382
8,20,5,-2,0,2,0,389
8,20,6,-2,0,2,0,353
8,20,7,-2,0,2,0,328
8,20,8,-2,0,2,0,352
8,20,9,-2,0,2,0,328
8,20,10,-2,0,2,0,318
9,1,1,1,0,1,1,721
9,1,2,1,0,2,0,511
9,1,3,1,0,1,0,400
9,1,4,1,0,1,0,336
9,1,5,1,0,2,0,392
9,1,6,1,0,1,-1,343
9,1,7,1,0,2,0,375
9,1,8,1,0,2,0,303
9,1,9,1,0,2,0,279
9,1,10,1,0,2,0,311
9,2,1,0,0,2,0,816
9,2,2,0,0,1,0,928
9,2,3,0,0,2,0,353
9,2,4,0,0,1,0,344
9,2,5,0,0,2,0,536
9,2,6,0,0,2,0,344
9,2,7,0,0,1,-1,376
9,2,8,0,0,2,0,344
9,2,9,0,0,2,0,344
9,2,10,0,0,2,0,328
9,3,1,0,0,2,0,648
9,3,2,0,0,1,1,336
9,3,3,0,0,1,0,312
9,3,4,0,0,1,0,294
9,3,5,0,0,1,1,271
9,3,6,0,0,1,-1,272
9,3,7,0,0,1,1,447
9,3,8,0,0,1,-1,303
9,3,9,0,0,1,1,447
9,3,10,0,0,1,1,327
9,4,1,0,0,1,-1,640
9,4,2,0,0,2,0,312
9,4,3,0,0,2,0,288
9,4,4,0,0,2,0,280
9,4,5,0,0,1,2,335
9,4,6,0,0,1,0,328
9,4,7,0,0,1,0,336
9,4,8,0,0,1,0,376
9,4,9,0,0,2,0,392
9,4,10,0,0,1,0,352
9,5,1,1,0,1,1,584
9,5,2,1,0,2,0,407
9,5,3,1,0,1,0,360
9,5,4,1,0,1,2,351
9,5,5,1,0,1,2,583
9,5,6,1,0,1,1,344
9,5,7,1,0,1,3,472
9,5,8,1,0,1,0,295
9,5,9,1,0,1,1,303
9,5,10,1,0,1,1,319
9,6,1,0,0,1,0,616
9,6,2,0,0,1,3,359
9,6,3,0,0,1,0,425
9,6,4,0,0,2,0,1175
9,6,5,0,0,2,0,327
9,6,6,0,0,1,0,248
9,6,7,0,0,1,0,320
9,6,8,0,0,1,0,296
9,6,9,0,0,1,1,296
9,6,10,0,0,1,-1,296
9,7,1,-1,0,1,0,616
9,7,2,-1,0,2,0,439
9,7,3,-1,0,1,0,560
9,7,4,-1,0,1,-1,272
9,7,5,-1,0,1,-2,303
9,7,6,-1,0,2,0,455
9,7,7,-1,0,2,0,287
9,7,8,-1,0,2,0,263
9,7,9,-1,0,2,0,287
9,7,10,-1,0,2,0,295
9,8,1,0,0,2,0,624
9,8,2,0,0,2,0,319
9,8,3,0,0,1,0,351
9,8,4,0,0,1,0,287
9,8,5,0,0,1,0,264
9,8,6,0,0,1,-1,271
9,8,7,0,0,1,-1,408
9,8,8,0,0,2,0,352
9,8,9,0,0,2,0,240
9,8,10,0,0,2,0,248
9,9,1,1,0,2,0,720
9,9,2,1,0,2,0,295
9,9,3,1,0,2,0,344
9,9,4,1,0,2,0,344
9,9,5,1,0,1,1,256
9,9,6,1,0,1,0,295
9,9,7,1,0,1,2,320
9,9,8,1,0,1,2,303
9,9,9,1,0,1,0,335
9,9,10,1,0,1,1,277
9,10,1,1,0,1,1,536
9,10,2,1,0,1,1,319
9,10,3,1,0,1,0,263
9,10,4,1,0,2,0,559
9,10,5,1,0,2,0,311
9,10,6,1,0,1,0,247
9,10,7,1,0,1,2,368
9,10,8,1,0,1,0,295
9,10,9,1,0,1,0,304
9,10,10,1,0,1,0,360
9,11,1,-1,0,1,-1,672
9,11,2,-1,0,1,-2,327
9,11,3,-1,0,2,0,312
9,11,4,-1,0,2,0,280
9,11,5,-1,0,2,0,280
9,11,6,-1,0,2,0,280
9,11,7,-1,0,2,0,304
9,11,8,-1,0,2,0,319
9,11,9,-1,0,2,0,302
9,11,10,-1,0,2,0,344
9,12,1,2,0,2,0,545
9,12,2,2,0,2,0,319
9,12,3,2,0,1,2,311
9,12,4,2,0,1,2,263
9,12,5,2,0,1,2,319
9,12,6,2,0,1,3,295
9,12,7,2,0,1,1,299
9,12,8,2,0,1,1,328
9,12,9,2,0,1,3,304
9,12,10,2,0,1,0,375
9,13,1,1,0,1,3,985
9,13,2,1,0,1,0,328
9,13,3,1,0,1,1,304
9,13,4,1,0,1,3,312
9,13,5,1,0,1,1,304
9,13,6,1,0,1,2,336
9,13,7,1,0,1,0,312
9,13,8,1,0,2,0,472
9,13,9,1,0,1,1,336
9,13,10,1,0,1,1,288
9,14,1,0,0,1,0,609
9,14,2,0,0,2,0,359
9,14,3,0,0,1,1,319
9,14,4,0,0,2,0,359
9,14,5,0,0,1,-1,247
9,14,6,0,0,1,1,359
9,14,7,0,0,1,0,447
9,14,8,0,0,1,0,343
9,14,9,0,0,2,0,319
9,14,10,0,0,2,0,287
9,15,1,0,0,2,0,609
9,15,2,0,0,2,0,320
9,15,3,0,0,1,0,504
9,15,4,0,0,1,2,280
9,15,5,0,0,1,0,336
9,15,6,0,0,1,-2,296
9,15,7,0,0,1,-1,304
9,15,8,0,0,1,-2,312
9,15,9,0,0,1,1,336
9,15,10,0,0,1,0,264
9,16,1,0,0,1,-2,552
9,16,2,0,0,2,0,600
9,16,3,0,0,2,0,263
9,16,4,0,0,1,2,535
9,16,5,0,0,1,0,327
9,16,6,0,0,1,-1,359
9,16,7,0,0,1,2,335
9,16,8,0,0,1,0,327
9,16,9,0,0,1,-1,343
9,16,10,0,0,1,0,335
9,17,1,0,0,1,0,465
9,17,2,0,0,2,0,328
9,17,3,0,0,2,0,311
9,17,4,0,0,1,0,296
9,17,5,0,0,1,0,296
9,17,6,0,0,1,0,312
9,17,7,0,0,1,0,280
9,17,8,0,0,1,1,304
9,17,9,0,0,1,1,328
9,17,10,0,0,1,0,296
9,18,1,0,0,1,-2,592
9,18,2,0,0,1,-1,368
9,18,3,0,0,1,1,311
9,18,4,0,0,1,0,295
9,18,5,0,0,1,0,304
9,18,6,0,0,1,-2,335
9,18,7,0,0,1,-1,360
9,18,8,0,0,1,0,359
9,18,9,0,0,1,-1,335
9,18,10,0,0,2,0,271
9,19,1,1,0,2,0,593
9,19,2,1,0,1,2,271
9,19,3,1,0,1,1,295
9,19,4,1,0,2,0,423
9,19,5,1,0,1,2,320
9,19,6,1,0,2,0,360
9,19,7,1,0,1,2,304
9,19,8,1,0,2,0,360
9,19,9,1,0,1,0,288
9,19,10,1,0,1,2,367
9,20,1,1,0,1,1,848
9,20,2,1,0,1,1,336
9,20,3,1,0,1,1,328
9,20,4,1,0,1,2,392
9,20,5,1,0,1,1,536
9,20,6,1,0,1,0,416
9,20,7,1,0,2,0,503
9,20,8,1,0,1,0,280
9,20,9,1,0,1,2,319
9,20,10,1,0,1,1,447
10,1,1,0,0,1,-1,1622
10,1,2,0,0,1,1,1053
10,1,3,0,0,1,0,1077
10,1,4,0,0,2,0,993
10,1,5,0,0,1,1,581
10,1,6,0,0,1,1,621
10,1,7,0,0,1,-1,533
10,1,8,0,0,1,1,477
10,1,9,0,0,1,-1,552
10,1,10,0,0,1,0,473
10,2,1,-2,0,1,-3,921
10,2,2,-2,0,1,-3,523
10,2,3,-2,0,2,0,483
10,2,4,-2,0,1,-3,828
10,2,5,-2,0,2,0,482
10,2,6,-2,0,2,0,519
10,2,7,-2,0,1,-2,509
10,2,8,-2,0,2,0,449
10,2,9,-2,0,2,0,433
10,2,10,-2,0,2,0,414
10,3,1,-1,0,1,-2,831
10,3,2,-1,0,1,0,625
10,3,3,-1,0,1,1,427
10,3,4,-1,0,1,-1,423
10,3,5,-1,0,1,-1,383
10,3,6,-1,0,1,0,393
10,3,7,-1,0,1,-2,361
10,3,8,-1,0,1,2,421
10,3,9,-1,0,1,-4,409
10,3,10,-1,0,1,-3,887
10,4,1,-1,0,1,-3,782
10,4,2,-1,0,1,-1,438
10,4,3,-1,0,1,-1,419
10,4,4,-1,0,1,-1,407
10,4,5,-1,0,1,-1,428
10,4,6,-1,0,2,0,402
10,4,7,-1,0,2,0,821
10,4,8,-1,0,1,-2,401
10,4,9,-1,0,2,0,377
10,4,10,-1,0,2,0,325
10,5,1,-1,0,1,-1,958
10,5,2,-1,0,1,-2,424
10,5,3,-1,0,1,-2,433
10,5,4,-1,0,2,0,480
10,5,5,-1,0,1,0,391
10,5,6,-1,0,1,0,374
10,5,7,-1,0,1,0,378
10,5,8,-1,0,1,-1,437
10,5,9,-1,0,1,-2,715
10,5,10,-1,0,2,0,444
10,6,1,0,0,1,-1,686
10,6,2,0,0,1,-1,665
10,6,3,0,0,1,1,377
10,6,4,0,0,1,2,443
10,6,5,0,0,1,-1,402
10,6,6,0,0,1,1,376
10,6,7,0,0,1,0,453
10,6,8,0,0,1,0,447
10,6,9,0,0,1,1,392
10,6,10,0,0,1,0,414
10,7,1,0,0,1,0,901
10,7,2,0,0,1,0,482
10,7,3,0,0,1,0,362
10,7,4,0,0,1,-1,353
10,7,5,0,0,1,0,373
10,7,6,0,0,1,-1,1012
10,7,7,0,0,1,1,369
10,7,8,0,0,1,1,378
10,7,9,0,0,1,-1,341
10,7,10,0,0,1,-1,347
10,8,1,0,0,1,-2,622
10,8,2,0,0,1,1,407
10,8,3,0,0,1,1,527
10,8,4,0,0,1,1,363
10,8,5,0,0,1,1,348
10,8,6,0,0,1,-1,346
10,8,7,0,0,1,-1,417
10,8,8,0,0,1,-1,347
10,8,9,0,0,2,0,406
10,8,10,0,0,2,0,341
10,9,1,2,0,1,1,635
10,9,2,2,0,1,3,343
10,9,3,2,0,1,2,357
10,9,4,2,0,1,2,365
10,9,5,2,0,1,4,410
10,9,6,2,0,1,3,366
10,9,7,2,0,1,1,358
10,9,8,2,0,1,2,433
10,9,9,2,0,1,3,404
10,9,10,2,0,1,4,363
10,10,1,0,0,1,1,553
10,10,2,0,0,1,0,365
10,10,3,0,0,1,1,353
10,10,4,0,0,1,0,863
10,10,5,0,0,1,2,399
10,10,6,0,0,1,-1,626
10,10,7,0,0,1,-1,331
10,10,8,0,0,1,1,388
10,10,9,0,0,1,0,831
10,10,10,0,0,1,0,386
10,11,1,0,0,1,0,3798
10,11,2,0,0,1,-1,434
10,11,3,0,0,1,0,414
10,11,4,0,0,1,-2,354
10,11,5,0,0,1,-1,341
10,11,6,0,0,1,0,332
10,11,7,0,0,1,1,364
10,11,8,0,0,1,0,369
10,11,9,0,0,1,-1,335
10,11,10,0,0,1,1,372
10,12,1,2,0,1,1,590
10,12,2,2,0,1,2,363
10,12,3,2,0,1,2,377
10,12,4,2,0,1,1,341
10,12,5,2,0,1,1,383
10,12,6,2,0,1,3,276
10,12,7,2,0,1,1,300
10,12,8,2,0,1,2,312
10,12,9,2,0,1,2,333
10,12,10,2,0,1,2,340
10,13,1,-2,0,1,-1,1623
10,13,2,-2,0,1,-4,333
10,13,3,-2,0,1,-3,373
10,13,4,-2,0,1,-2,317
10,13,5,-2,0,2,0,452
10,13,6,-2,0,2,0,746
10,13,7,-2,0,2,0,324
10,13,8,-2,0,2,0,337
10,13,9,-2,0,2,0,298
10,13,10,-2,0,2,0,281
10,14,1,-1,0,1,0,591
10,14,2,-1,0,1,-2,809
10,14,3,-1,0,1,-2,914
10,14,4,-1,0,1,-1,335
10,14,5,-1,0,2,0,367
10,14,6,-1,0,1,-1,371
10,14,7,-1,0,2,0,423
10,14,8,-1,0,1,-1,377
10,14,9,-1,0,2,0,401
10,14,10,-1,0,1,-3,397
10,15,1,0,0,1,-2,903
10,15,2,0,0,1,-1,373
10,15,3,0,0,1,1,331
10,15,4,0,0,1,-1,373
10,15,5,0,0,1,0,367
10,15,6,0,0,1,-1,357
10,15,7,0,0,1,-1,334
10,15,8,0,0,1,-1,387
10,15,9,0,0,2,0,415
10,15,10,0,0,2,0,399
10,16,1,0,0,1,3,601
10,16,2,0,0,1,-1,1479
10,16,3,0,0,1,0,371
10,16,4,0,0,1,3,390
10,16,5,0,0,1,-2,452
10,16,6,0,0,1,-1,363
10,16,7,0,0,1,0,772
10,16,8,0,0,1,-1,406
10,16,9,0,0,1,-1,387
10,16,10,0,0,1,0,426
10,17,1,-1,0,1,0,526
10,17,2,-1,0,1,-2,362
10,17,3,-1,0,1,0,363
10,17,4,-1,0,1,-1,350
10,17,5,-1,0,1,-3,410
10,17,6,-1,0,1,-1,414
10,17,7,-1,0,1,-2,371
10,17,8,-1,0,1,-2,716
10,17,9,-1,0,1,1,403
10,17,10,-1,0,1,-1,402
10,18,1,-1,0,1,-1,583
10,18,2,-1,0,1,-1,426
10,18,3,-1,0,1,-2,386
10,18,4,-1,0,1,-1,439
10,18,5,-1,0,2,0,1027
10,18,6,-1,0,2,0,440
10,18,7,-1,0,2,0,384
10,18,8,-1,0,1,-2,333
10,18,9,-1,0,1,-2,423
10,18,10,-1,0,2,0,393
10,19,1,1,0,1,2,816
10,19,2,1,0,1,1,356
10,19,3,1,0,1,0,301
10,19,4,1,0,1,1,352
10,19,5,1,0,1,1,344
10,19,6,1,0,1,0,409
10,19,7,1,0,1,2,370
10,19,8,1,0,1,4,347
10,19,9,1,0,1,1,852
10,19,10,1,0,1,1,374
10,20,1,1,0,1,-1,604
10,20,2,1,0,1,4,353
10,20,3,1,0,1,2,343
10,20,4,1,0,1,1,348
10,20,5,1,0,1,-1,317
10,20,6,1,0,1,1,353
10,20,7,1,0,1,2,306
10,20,8,1,0,1,0,321
10,20,9,1,0,1,4,328
10,20,10,1,0,1,3,337
11,1,1,2,0,1,2,2219
11,1,2,2,0,1,2,766
11,1,3,2,0,2,0,603
11,1,4,2,0,1,1,569
11,1,5,2,0,1,3,563
11,1,6,2,0,1,2,649
11,1,7,2,0,2,0,437
11,1,8,2,0,1,2,598
11,1,9,2,0,1,1,599
11,1,10,2,0,1,3,601
11,2,1,0,0,2,0,1212
11,2,2,0,0,1,1,419
11,2,3,0,0,1,0,705
11,2,4,0,0,1,1,870
11,2,5,0,0,2,0,567
11,2,6,0,0,1,0,373
11,2,7,0,0,1,0,404
11,2,8,0,0,1,1,401
11,2,9,0,0,1,-1,592
11,2,10,0,0,1,0,752
11,3,1,0,0,1,-1,1036
11,3,2,0,0,1,0,1051
11,3,3,0,0,1,0,623
11,3,4,0,0,2,0,1165
11,3,5,0,0,1,0,444
11,3,6,0,0,1,2,463
11,3,7,0,0,2,0,783
11,3,8,0,0,1,2,424
11,3,9,0,0,1,0,905
11,3,10,0,0,1,-2,565
11,4,1,-1,0,1,0,1015
11,4,2,-1,0,1,0,616
11,4,3,-1,0,2,0,540
11,4,4,-1,0,1,0,511
11,4,5,-1,0,1,-3,566
11,4,6,-1,0,1,-1,745
11,4,7,-1,0,1,-1,623
11,4,8,-1,0,2,0,486
11,4,9,-1,0,1,0,482
11,4,10,-1,0,1,-1,446
11,5,1,-1,0,1,-1,896
11,5,2,-1,0,2,0,1225
11,5,3,-1,0,1,1,468
11,5,4,-1,0,1,-2,415
11,5,5,-1,0,1,0,379
11,5,6,-1,0,1,0,428
11,5,7,-1,0,2,0,818
11,5,8,-1,0,1,-1,383
11,5,9,-1,0,1,-2,595
11,5,10,-1,0,2,0,517
11,6,1,1,0,1,2,775
11,6,2,1,0,2,0,514
11,6,3,1,0,1,0,563
11,6,4,1,0,1,2,1225
11,6,5,1,0,1,0,637
11,6,6,1,0,1,-1,588
11,6,7,1,0,2,0,397
11,6,8,1,0,1,1,964
11,6,9,1,0,1,-1,867
11,6,10,1,0,2,0,459
11,7,1,0,0,1,1,2063
11,7,2,0,0,1,-2,480
11,7,3,0,0,1,-1,645
11,7,4,0,0,1,-1,598
11,7,5,0,0,1,2,567
11,7,6,0,0,1,-2,517
11,7,7,0,0,1,0,463
11,7,8,0,0,1,1,624
11,7,9,0,0,2,0,1110
11,7,10,0,0,1,2,600
11,8,1,0,0,1,1,12612
11,8,2,0,0,1,0,781
11,8,3,0,0,2,0,818
11,8,4,0,0,1,0,498
11,8,5,0,0,2,0,887
11,8,6,0,0,1,1,532
11,8,7,0,0,1,1,459
11,8,8,0,0,1,0,436
11,8,9,0,0,1,1,357
11,8,10,0,0,1,0,406
11,9,1,-1,0,1,0,696
11,9,2,-1,0,1,-2,796
11,9,3,-1,0,2,0,446
11,9,4,-1,0,1,-1,425
11,9,5,-1,0,1,-2,1128
11,9,6,-1,0,2,0,629
11,9,7,-1,0,1,0,448
11,9,8,-1,0,2,0,828
11,9,9,-1,0,2,0,728
11,9,10,-1,0,1,0,914
11,10,1,2,0,1,3,1588
11,10,2,2,0,1,2,20116
11,10,3,2,0,1,4,534
11,10,4,2,0,1,2,442
11,10,5,2,0,1,3,450
11,10,6,2,0,1,3,1002
11,10,7,2,0,1,3,397
11,10,8,2,0,1,3,440
11,10,9,2,0,1,2,469
11,10,10,2,0,1,0,403
11,11,1,1,0,1,1,810
11,11,2,1,0,1,2,469
11,11,3,1,0,1,-1,407
11,11,4,1,0,1,0,501
11,11,5,1,0,2,0,1268
11,11,6,1,0,1,1,398
11,11,7,1,0,1,0,447
11,11,8,1,0,1,3,789
11,11,9,1,0,1,3,464
11,11,10,1,0,1,1,453
11,12,1,1,0,1,0,633
11,12,2,1,0,1,2,489
11,12,3,1,0,1,1,675
11,12,4,1,0,1,1,3673
11,12,5,1,0,1,3,413
11,12,6,1,0,1,0,472
11,12,7,1,0,1,2,460
11,12,8,1,0,1,0,643
11,12,9,1,0,1,-1,569
11,12,10,1,0,1,1,463
11,13,1,0,0,1,-1,583
11,13,2,0,0,1,-1,344
11,13,3,0,0,1,0,379
11,13,4,0,0,1,0,607
11,13,5,0,0,2,0,824
11,13,6,0,0,1,1,549
11,13,7,0,0,1,-1,455
11,13,8,0,0,1,0,443
11,13,9,0,0,2,0,535
11,13,10,0,0,1,0,461
11,14,1,-2,0,1,-3,615
11,14,2,-2,0,2,0,392
11,14,3,-2,0,1,-2,379
11,14,4,-2,0,1,-3,424
11,14,5,-2,0,2,0,549
11,14,6,-2,0,2,0,431
11,14,7,-2,0,2,0,377
11,14,8,-2,0,2,0,381
11,14,9,-2,0,2,0,377
11,14,10,-2,0,1,-2,526
11,15,1,0,0,1,3,1296
11,15,2,0,0,1,-2,443
11,15,3,0,0,1,0,498
11,15,4,0,0,1,-1,497
11,15,5,0,0,1,3,507
11,15,6,0,0,1,-1,457
11,15,7,0,0,1,1,793
11,15,8,0,0,1,0,920
11,15,9,0,0,2,0,563
11,15,10,0,0,1,0,501
11,16,1,-1,0,1,-2,730
11,16,2,-1,0,1,-1,436
11,16,3,-1,0,1,0,556
11,16,4,-1,0,1,1,693
11,16,5,-1,0,1,0,9857
11,16,6,-1,0,1,-2,731
11,16,7,-1,0,2,0,1002
11,16,8,-1,0,1,-5,645
11,16,9,-1,0,2,0,412
11,16,10,-1,0,2,0,751
11,17,1,0,0,1,0,662
11,17,2,0,0,1,0,545
11,17,3,0,0,1,2,427
11,17,4,0,0,1,1,36275
11,17,5,0,0,1,1,712
11,17,6,0,0,1,0,482
11,17,7,0,0,2,0,882
11,17,8,0,0,2,0,758
11,17,9,0,0,1,1,536
11,17,10,0,0,1,1,304
11,18,1,2,0,1,1,602
11,18,2,2,0,1,2,413
11,18,3,2,0,1,1,359
11,18,4,2,0,1,3,346
11,18,5,2,0,1,3,396
11,18,6,2,0,1,2,378
11,18,7,2,0,1,1,361
11,18,8,2,0,1,2,430
11,18,9,2,0,1,3,357
11,18,10,2,0,1,3,423
11,19,1,1,0,1,2,706
11,19,2,1,0,1,3,376
11,19,3,1,0,1,1,377
11,19,4,1,0,1,1,406
11,19,5,1,0,1,-1,394
11,19,6,1,0,1,2,608
11,19,7,1,0,1,-1,1288
11,19,8,1,0,1,2,557
11,19,9,1,0,1,0,715
11,19,10,1,0,1,3,559
11,20,1,0,0,1,2,844
11,20,2,0,0,1,0,483
11,20,3,0,0,1,0,400
11,20,4,0,0,1,0,337
11,20,5,0,0,1,-1,491
11,20,6,0,0,1,0,550
11,20,7,0,0,1,-1,681
11,20,8,0,0,1,1,1719
11,20,9,0,0,1,0,639
11,20,10,0,0,1,-1,580
12,1,1,-1,0,1,-3,1806
12,1,2,-1,0,2,0,1306
12,1,3,-1,0,1,0,434
12,1,4,-1,0,1,-1,646
12,1,5,-1,0,1,0,264
12,1,6,-1,0,2,0,411
12,1,7,-1,0,1,-2,253
12,1,8,-1,0,1,1,311
12,1,9,-1,0,1,0,513
12,1,10,-1,0,1,-1,3959
12,2,1,-1,0,1,-1,1573
12,2,2,-1,0,1,-1,1404
12,2,3,-1,0,1,0,1583
12,2,4,-1,0,2,0,1480
12,2,5,-1,0,2,0,554
12,2,6,-1,0,1,0,3555
12,2,7,-1,0,1,-1,304
12,2,8,-1,0,1,0,299
12,2,9,-1,0,1,-2,1125
12,2,10,-1,0,1,0,1333
12,3,1,1,0,1,1,4637
12,3,2,1,0,1,3,1272
12,3,3,1,0,1,0,2159
12,3,4,1,0,1,-1,1355
12,3,5,1,0,1,1,1262
12,3,6,1,0,1,2,1118
12,3,7,1,0,1,2,1077
12,3,8,1,0,1,1,1138
12,3,9,1,0,1,2,1029
12,3,10,1,0,1,0,1019
12,4,1,0,0,1,-1,1484
12,4,2,0,0,1,0,1220
12,4,3,0,0,1,0,1188
12,4,4,0,0,1,0,1143
12,4,5,0,0,1,1,1055
12,4,6,0,0,1,1,1177
12,4,7,0,0,1,0,1094
12,4,8,0,0,1,-1,1014
12,4,9,0,0,1,0,1126
12,4,10,0,0,1,0,1011
12,5,1,1,0,1,0,1256
12,5,2,1,0,1,2,1242
12,5,3,1,0,1,2,1170
12,5,4,1,0,1,2,1071
12,5,5,1,0,1,1,1077
12,5,6,1,0,1,1,1057
12,5,7,1,0,1,1,1101
12,5,8,1,0,1,1,1100
12,5,9,1,0,1,4,952
12,5,10,1,0,1,2,1034
12,6,1,1,0,1,1,1172
12,6,2,1,0,1,1,1063
12,6,3,1,0,1,2,1041
12,6,4,1,0,1,2,1111
12,6,5,1,0,1,1,983
12,6,6,1,0,1,0,1037
12,6,7,1,0,1,2,996
12,6,8,1,0,1,2,945
12,6,9,1,0,1,0,1025
12,6,10,1,0,1,1,1020
12,7,1,0,0,1,2,1360
12,7,2,0,0,1,0,937
12,7,3,0,0,1,-1,947
12,7,4,0,0,1,-1,1013
12,7,5,0,0,1,0,1019
12,7,6,0,0,1,1,1044
12,7,7,0,0,1,1,1364
12,7,8,0,0,1,0,1085
12,7,9,0,0,1,1,1051
12,7,10,0,0,1,-1,1074
12,8,1,1,0,1,1,1917
12,8,2,1,0,1,0,964
12,8,3,1,0,1,0,1567
12,8,4,1,0,1,1,933
12,8,5,1,0,1,3,972
12,8,6,1,0,1,3,1096
12,8,7,1,0,1,1,1092
12,8,8,1,0,1,1,1034
12,8,9,1,0,1,0,979
12,8,10,1,0,1,2,900
12,9,1,-1,0,1,0,1169
12,9,2,-1,0,1,-1,984
12,9,3,-1,0,1,0,1047
12,9,4,-1,0,1,-1,956
12,9,5,-1,0,1,2,1005
12,9,6,-1,0,1,0,1041
12,9,7,-1,0,1,0,1046
12,9,8,-1,0,1,-2,965
12,9,9,-1,0,1,0,992
12,9,10,-1,0,1,0,1064
12,10,1,0,0,1,0,1186
12,10,2,0,0,1,-2,1213
12,10,3,0,0,1,2,2151
12,10,4,0,0,1,0,366
12,10,5,0,0,1,-2,1107
12,10,6,0,0,1,0,976
12,10,7,0,0,1,1,901
12,10,8,0,0,1,-1,960
12,10,9,0,0,1,0,1041
12,10,10,0,0,1,1,910
12,11,1,0,0,1,-1,1329
12,11,2,0,0,1,1,1014
12,11,3,0,0,1,2,1015
12,11,4,0,0,1,0,954
12,11,5,0,0,1,0,916
12,11,6,0,0,1,-1,921
12,11,7,0,0,1,-1,853
12,11,8,0,0,1,0,873
12,11,9,0,0,1,1,900
12,11,10,0,0,1,-1,886
12,12,1,0,0,1,-1,1395
12,12,2,0,0,1,1,985
12,12,3,0,0,1,1,366
12,12,4,0,0,1,1,1070
12,12,5,0,0,1,0,760
12,12,6,0,0,1,0,938
12,12,7,0,0,1,1,1657
12,12,8,0,0,1,1,932
12,12,9,0,0,1,1,895
12,12,10,0,0,1,0,834
12,13,1,-1,0,1,-2,1164
12,13,2,-1,0,1,-2,1007
12,13,3,-1,0,2,0,844
12,13,4,-1,0,2,0,1785
12,13,5,-1,0,2,0,1018
12,13,6,-1,0,2,0,439
12,13,7,-1,0,2,0,440
12,13,8,-1,0,2,0,442
12,13,9,-1,0,2,0,1270
12,13,10,-1,0,2,0,849
12,14,1,0,0,1,0,1014
12,14,2,0,0,1,1,812
12,14,3,0,0,1,1,849
12,14,4,0,0,1,1,728
12,14,5,0,0,1,1,785
12,14,6,0,0,1,0,826
12,14,7,0,0,1,2,781
12,14,8,0,0,1,-2,865
12,14,9,0,0,1,1,859
12,14,10,0,0,1,-1,821
12,15,1,1,0,1,1,1216
12,15,2,1,0,1,1,934
12,15,3,1,0,1,1,782
12,15,4,1,0,1,1,620
12,15,5,1,0,1,1,499
12,15,6,1,0,1,0,412
12,15,7,1,0,1,1,388
12,15,8,1,0,1,0,442
12,15,9,1,0,1,1,432
12,15,10,1,0,1,1,406
12,16,1,0,0,1,-1,972
12,16,2,0,0,1,1,845
12,16,3,0,0,1,0,919
12,16,4,0,0,1,0,767
12,16,5,0,0,1,-2,340
12,16,6,0,0,1,0,480
12,16,7,0,0,1,0,1570
12,16,8,0,0,2,0,1748
12,16,9,0,0,2,0,504
12,16,10,0,0,2,0,484
12,17,1,-1,0,1,-2,1272
12,17,2,-1,0,1,0,1144
12,17,3,-1,0,1,0,698
12,17,4,-1,0,1,-1,336
12,17,5,-1,0,2,0,1543
12,17,6,-1,0,2,0,413
12,17,7,-1,0,2,0,408
12,17,8,-1,0,2,0,428
12,17,9,-1,0,2,0,431
12,17,10,-1,0,2,0,422
12,18,1,-1,0,2,0,815
12,18,2,-1,0,2,0,315
12,18,3,-1,0,2,0,297
12,18,4,-1,0,2,0,293
12,18,5,-1,0,2,0,306
12,18,6,-1,0,2,0,300
12,18,7,-1,0,2,0,322
12,18,8,-1,0,2,0,331
12,18,9,-1,0,2,0,326
12,18,10,-1,0,2,0,424
12,19,1,0,0,1,1,2616
12,19,2,0,0,1,0,864
12,19,3,0,0,1,1,860
12,19,4,0,0,1,1,842
12,19,5,0,0,1,0,6788
12,19,6,0,0,1,1,796
12,19,7,0,0,1,-1,757
12,19,8,0,0,1,0,793
12,19,9,0,0,1,-1,817
12,19,10,0,0,1,0,780
12,20,1,1,0,1,1,807
12,20,2,1,0,1,1,407
12,20,3,1,0,1,2,402
12,20,4,1,0,1,-1,518
12,20,5,1,0,1,0,526
12,20,6,1,0,1,2,446
12,20,7,1,0,1,1,393
12,20,8,1,0,1,2,486
12,20,9,1,0,1,2,430
12,20,10,1,0,1,-2,1445
13,1,1,1,0,1,1,1467
13,1,2,1,0,1,2,727
13,1,3,1,0,1,1,593
13,1,4,1,0,1,-1,818
13,1,5,1,0,1,0,624
13,1,6,1,0,1,-1,624
13,1,7,1,0,2,0,594
13,1,8,1,0,1,0,623
13,1,9,1,0,2,0,574
13,1,10,1,0,1,0,592
13,2,1,1,0,1,1,865
13,2,2,1,0,1,0,630
13,2,3,1,0,1,1,576
13,2,4,1,0,1,1,576
13,2,5,1,0,1,2,592
13,2,6,1,0,1,2,512
13,2,7,1,0,1,1,559
13,2,8,1,0,1,-1,578
13,2,9,1,0,1,1,510
13,2,10,1,0,1,1,497
13,3,1,-1,0,1,-1,681
13,3,2,-1,0,1,-1,1200
13,3,3,-1,0,1,-2,481
13,3,4,-1,0,2,0,511
13,3,5,-1,0,2,0,529
13,3,6,-1,0,2,0,627
13,3,7,-1,0,2,0,591
13,3,8,-1,0,1,-1,479
13,3,9,-1,0,1,-2,545
13,3,10,-1,0,2,0,466
13,4,1,1,0,1,2,784
13,4,2,1,0,1,1,545
13,4,3,1,0,1,2,576
13,4,4,1,0,1,0,592
13,4,5,1,0,1,1,513
13,4,6,1,0,1,1,515
13,4,7,1,0,1,2,546
13,4,8,1,0,1,0,563
13,4,9,1,0,1,1,512
13,4,10,1,0,1,0,553
13,5,1,0,0,1,0,688
13,5,2,0,0,1,-1,514
13,5,3,0,0,1,1,464
13,5,4,0,0,1,1,478
13,5,5,0,0,1,0,962
13,5,6,0,0,2,0,528
13,5,7,0,0,1,-1,465
13,5,8,0,0,1,0,463
13,5,9,0,0,1,1,432
13,5,10,0,0,1,-1,515
13,6,1,0,0,1,0,606
13,6,2,0,0,1,1,520
13,6,3,0,0,1,0,530
13,6,4,0,0,1,0,547
13,6,5,0,0,1,0,491
13,6,6,0,0,1,-1,479
13,6,7,0,0,1,0,482
13,6,8,0,0,2,0,546
13,6,9,0,0,2,0,510
13,6,10,0,0,2,0,511
13,7,1,2,0,1,1,706
13,7,2,2,0,1,2,529
13,7,3,2,0,1,2,584
13,7,4,2,0,1,1,543
13,7,5,2,0,1,2,546
13,7,6,2,0,1,3,575
13,7,7,2,0,1,1,545
13,7,8,2,0,1,2,558
13,7,9,2,0,1,2,562
13,7,10,2,0,1,2,607
13,8,1,-1,0,1,-2,595
13,8,2,-1,0,1,-4,492
13,8,3,-1,0,2,0,480
13,8,4,-1,0,2,0,463
13,8,5,-1,0,2,0,498
13,8,6,-1,0,2,0,486
13,8,7,-1,0,2,0,496
13,8,8,-1,0,2,0,542
13,8,9,-1,0,2,0,514
13,8,10,-1,0,2,0,497
13,9,1,0,0,1,-2,530
13,9,2,0,0,1,2,483
13,9,3,0,0,1,0,496
13,9,4,0,0,1,0,483
13,9,5,0,0,1,1,448
13,9,6,0,0,1,0,465
13,9,7,0,0,1,0,496
13,9,8,0,0,1,0,479
13,9,9,0,0,1,-2,481
13,9,10,0,0,1,-1,500
13,10,1,-2,0,1,-3,553
13,10,2,-2,0,1,-4,450
13,10,3,-2,0,1,-2,528
13,10,4,-2,0,1,-3,530
13,10,5,-2,0,2,0,448
13,10,6,-2,0,2,0,449
13,10,7,-2,0,2,0,479
13,10,8,-2,0,2,0,526
13,10,9,-2,0,2,0,497
13,10,10,-2,0,2,0,533
13,11,1,1,0,1,2,826
13,11,2,1,0,1,0,399
13,11,3,1,0,1,2,431
13,11,4,1,0,1,1,395
13,11,5,1,0,1,1,433
13,11,6,1,0,1,0,433
13,11,7,1,0,1,2,445
13,11,8,1,0,1,2,416
13,11,9,1,0,1,2,454
13,11,10,1,0,1,0,461
13,12,1,0,0,1,0,1107
13,12,2,0,0,1,2,448
13,12,3,0,0,1,1,414
13,12,4,0,0,1,0,466
13,12,5,0,0,1,-1,463
13,12,6,0,0,1,0,433
13,12,7,0,0,1,0,482
13,12,8,0,0,1,-1,495
13,12,9,0,0,1,-1,480
13,12,10,0,0,1,-1,448
13,13,1,3,0,1,3,562
13,13,2,3,0,1,2,432
13,13,3,3,0,1,3,495
13,13,4,3,0,1,1,480
13,13,5,3,0,1,3,482
13,13,6,3,0,1,2,511
13,13,7,3,0,1,2,480
13,13,8,3,0,1,4,498
13,13,9,3,0,1,4,529
13,13,10,3,0,1,3,529
13,14,1,1,0,1,3,580
13,14,2,1,0,1,2,585
13,14,3,1,0,1,0,452
13,14,4,1,0,1,1,448
13,14,5,1,0,1,2,495
13,14,6,1,0,1,-1,473
13,14,7,1,0,1,3,431
13,14,8,1,0,1,2,480
13,14,9,1,0,1,0,467
13,14,10,1,0,1,1,480
13,15,1,0,0,1,1,513
13,15,2,0,0,1,1,481
13,15,3,0,0,1,1,511
13,15,4,0,0,1,-1,476
13,15,5,0,0,1,2,479
13,15,6,0,0,1,1,495
13,15,7,0,0,1,-1,496
13,15,8,0,0,1,-2,464
13,15,9,0,0,1,-1,434
13,15,10,0,0,1,-1,416
13,16,1,0,0,1,1,503
13,16,2,0,0,1,0,544
13,16,3,0,0,1,-1,465
13,16,4,0,0,1,-1,431
13,16,5,0,0,1,0,494
13,16,6,0,0,1,0,498
13,16,7,0,0,1,1,479
13,16,8,0,0,1,1,479
13,16,9,0,0,1,-2,514
13,16,10,0,0,1,0,482
13,17,1,0,0,1,0,610
13,17,2,0,0,1,-2,483
13,17,3,0,0,1,0,416
13,17,4,0,0,1,0,450
13,17,5,0,0,1,1,481
13,17,6,0,0,1,1,496
13,17,7,0,0,1,0,527
13,17,8,0,0,1,0,460
13,17,9,0,0,1,0,481
13,17,10,0,0,2,0,432
13,18,1,1,0,1,2,531
13,18,2,1,0,1,1,463
13,18,3,1,0,1,-1,446
13,18,4,1,0,1,0,482
13,18,5,1,0,1,2,545
13,18,6,1,0,1,-1,431
13,18,7,1,0,1,1,465
13,18,8,1,0,1,2,466
13,18,9,1,0,1,2,511
13,18,10,1,0,1,0,478
13,19,1,-1,0,1,0,511
13,19,2,-1,0,1,-1,479
13,19,3,-1,0,1,-2,496
13,19,4,-1,0,2,0,519
13,19,5,-1,0,2,0,532
13,19,6,-1,0,1,0,516
13,19,7,-1,0,1,-1,480
13,19,8,-1,0,2,0,480
13,19,9,-1,0,2,0,466
13,19,10,-1,0,2,0,464
13,20,1,-1,0,1,-2,544
13,20,2,-1,0,1,-1,399
13,20,3,-1,0,1,-2,464
13,20,4,-1,0,1,-2,514
13,20,5,-1,0,1,1,497
13,20,6,-1,0,2,0,540
13,20,7,-1,0,2,0,466
13,20,8,-1,0,2,0,466
13,20,9,-1,0,2,0,431
13,20,10,-1,0,1,-1,480
14,1,1,-1,0,1,-1,888
14,1,2,-1,0,1,-2,406
14,1,3,-1,0,1,-2,271
14,1,4,-1,0,2,0,318
14,1,5,-1,0,2,0,321
14,1,6,-1,0,2,0,352
14,1,7,-1,0,2,0,280
14,1,8,-1,0,2,0,279
14,1,9,-1,0,2,0,255
14,1,10,-1,0,1,0,392
14,2,1,0,0,2,0,809
14,2,2,0,0,1,1,256
14,2,3,0,0,1,0,255
14,2,4,0,0,1,-1,191
14,2,5,0,0,1,1,199
14,2,6,0,0,1,1,224
14,2,7,0,0,1,1,207
14,2,8,0,0,1,0,200
14,2,9,0,0,1,0,191
14,2,10,0,0,1,-1,224
14,3,1,1,0,1,-1,679
14,3,2,1,0,1,-1,272
14,3,3,1,0,2,0,207
14,3,4,1,0,2,0,347
14,3,5,1,0,1,1,576
14,3,6,1,0,1,2,359
14,3,7,1,0,1,1,215
14,3,8,1,0,1,0,207
14,3,9,1,0,1,1,215
14,3,10,1,0,1,1,182
14,4,1,1,0,1,1,470
14,4,2,1,0,1,0,207
14,4,3,1,0,1,1,183
14,4,4,1,0,1,2,200
14,4,5,1,0,1,1,208
14,4,6,1,0,1,0,255
14,4,7,1,0,1,0,326
14,4,8,1,0,1,2,264
14,4,9,1,0,1,1,256
14,4,10,1,0,1,2,224
14,5,1,0,0,1,-1,440
14,5,2,0,0,1,-2,280
14,5,3,0,0,1,1,623
14,5,4,0,0,1,0,343
14,5,5,0,0,1,-1,199
14,5,6,0,0,2,0,255
14,5,7,0,0,2,0,256
14,5,8,0,0,2,0,232
14,5,9,0,0,2,0,223
14,5,10,0,0,2,0,216
14,6,1,2,0,1,2,952
14,6,2,2,0,1,1,208
14,6,3,2,0,1,2,184
14,6,4,2,0,1,3,255
14,6,5,2,0,1,1,296
14,6,6,2,0,1,3,304
14,6,7,2,0,1,3,279
14,6,8,2,0,1,2,279
14,6,9,2,0,1,3,271
14,6,10,2,0,1,1,272
14,7,1,-2,0,1,-1,463
14,7,2,-2,0,1,-2,184
14,7,3,-2,0,1,-1,172
14,7,4,-2,0,1,-2,223
14,7,5,-2,0,2,0,208
14,7,6,-2,0,2,0,216
14,7,7,-2,0,2,0,288
14,7,8,-2,0,2,0,231
14,7,9,-2,0,2,0,256
14,7,10,-2,0,2,0,263
14,8,1,-1,0,1,-1,464
14,8,2,-1,0,1,-1,190
14,8,3,-1,0,1,-3,231
14,8,4,-1,0,2,0,219
14,8,5,-1,0,2,0,208
14,8,6,-1,0,2,0,207
14,8,7,-1,0,2,0,231
14,8,8,-1,0,2,0,263
14,8,9,-1,0,2,0,248
14,8,10,-1,0,2,0,255
14,9,1,-1,0,1,-1,477
14,9,2,-1,0,1,-1,200
14,9,3,-1,0,1,0,184
14,9,4,-1,0,1,0,207
14,9,5,-1,0,1,0,199
14,9,6,-1,0,1,0,207
14,9,7,-1,0,1,-2,232
14,9,8,-1,0,2,0,199
14,9,9,-1,0,2,0,191
14,9,10,-1,0,2,0,279
14,10,1,1,0,1,0,592
14,10,2,1,0,1,4,198
14,10,3,1,0,1,2,195
14,10,4,1,0,1,1,273
14,10,5,1,0,1,1,240
14,10,6,1,0,1,0,223
14,10,7,1,0,1,1,255
14,10,8,1,0,1,1,215
14,10,9,1,0,1,0,223
14,10,10,1,0,1,2,303
14,11,1,-1,0,1,-2,441
14,11,2,-1,0,1,1,663
14,11,3,-1,0,1,0,216
14,11,4,-1,0,1,0,191
14,11,5,-1,0,2,0,415
14,11,6,-1,0,2,0,224
14,11,7,-1,0,2,0,199
14,11,8,-1,0,2,0,233
14,11,9,-1,0,2,0,239
14,11,10,-1,0,2,0,224
14,12,1,1,0,1,0,361
14,12,2,1,0,1,-1,191
14,12,3,1,0,1,2,183
14,12,4,1,0,1,0,199
14,12,5,1,0,1,3,200
14,12,6,1,0,1,1,215
14,12,7,1,0,1,2,270
14,12,8,1,0,1,1,290
14,12,9,1,0,1,1,263
14,12,10,1,0,1,2,263
14,13,1,3,0,1,3,472
14,13,2,3,0,1,3,223
14,13,3,3,0,1,3,208
14,13,4,3,0,1,4,222
14,13,5,3,0,1,3,239
14,13,6,3,0,1,4,224
14,13,7,3,0,1,3,247
14,13,8,3,0,1,4,255
14,13,9,3,0,1,3,263
14,13,10,3,0,1,3,271
14,14,1,-1,0,1,-1,320
14,14,2,-1,0,1,-2,206
14,14,3,-1,0,1,0,199
14,14,4,-1,0,1,0,303
14,14,5,-1,0,1,-1,247
14,14,6,-1,0,2,0,255
14,14,7,-1,0,2,0,783
14,14,8,-1,0,2,0,271
14,14,9,-1,0,2,0,241
14,14,10,-1,0,2,0,384
14,15,1,-2,0,1,-3,624
14,15,2,-2,0,1,-3,288
14,15,3,-2,0,2,0,223
14,15,4,-2,0,2,0,247
14,15,5,-2,0,2,0,303
14,15,6,-2,0,2,0,296
14,15,7,-2,0,2,0,303
14,15,8,-2,0,2,0,255
14,15,9,-2,0,2,0,279
14,15,10,-2,0,2,0,223
14,16,1,1,0,1,2,640
14,16,2,1,0,1,2,231
14,16,3,1,0,1,2,231
14,16,4,1,0,1,0,216
14,16,5,1,0,1,0,271
14,16,6,1,0,1,2,232
14,16,7,1,0,1,2,271
14,16,8,1,0,1,1,431
14,16,9,1,0,1,1,271
14,16,10,1,0,1,2,287
14,17,1,0,0,1,0,577
14,17,2,0,0,1,0,224
14,17,3,0,0,1,1,202
14,17,4,0,0,1,0,199
14,17,5,0,0,1,2,239
14,17,6,0,0,1,0,223
14,17,7,0,0,1,-2,240
14,17,8,0,0,1,0,223
14,17,9,0,0,1,-1,231
14,17,10,0,0,1,0,255
14,18,1,-2,0,1,-2,353
14,18,2,-2,0,1,-3,255
14,18,3,-2,0,2,0,232
14,18,4,-2,0,2,0,207
14,18,5,-2,0,2,0,232
14,18,6,-2,0,2,0,224
14,18,7,-2,0,2,0,213
14,18,8,-2,0,2,0,208
14,18,9,-2,0,2,0,208
14,18,10,-2,0,2,0,232
14,19,1,0,0,1,0,328
14,19,2,0,0,1,0,199
14,19,3,0,0,1,0,183
14,19,4,0,0,1,-1,175
14,19,5,0,0,1,-1,399
14,19,6,0,0,2,0,231
14,19,7,0,0,2,0,224
14,19,8,0,0,2,0,199
14,19,9,0,0,2,0,216
14,19,10,0,0,2,0,223
14,20,1,0,0,1,0,312
14,20,2,0,0,1,0,191
14,20,3,0,0,1,0,239
14,20,4,0,0,1,1,239
14,20,5,0,0,1,2,615
14,20,6,0,0,1,0,599
14,20,7,0,0,1,-1,223
14,20,8,0,0,1,0,239
14,20,9,0,0,1,-1,223
14,20,10,0,0,1,1,223
15,1,1,0,0,1,0,1667
15,1,2,0,0,2,0,1629
15,1,3,0,0,1,1,575
15,1,4,0,0,1,-1,605
15,1,5,0,0,2,0,473
15,1,6,0,0,1,1,560
15,1,7,0,0,2,0,426
15,1,8,0,0,1,0,442
15,1,9,0,0,2,0,676
15,1,10,0,0,1,1,459
15,2,1,0,0,2,0,1836
15,2,2,0,0,1,0,550
15,2,3,0,0,2,0,535
15,2,4,0,0,1,1,463
15,2,5,0,0,2,0,481
15,2,6,0,0,1,-1,553
15,2,7,0,0,1,0,669
15,2,8,0,0,1,-1,491
15,2,9,0,0,2,0,451
15,2,10,0,0,2,0,466
15,3,1,1,0,1,2,724
15,3,2,1,0,2,0,427
15,3,3,1,0,1,1,443
15,3,4,1,0,2,0,427
15,3,5,1,0,1,2,442
15,3,6,1,0,2,0,465
15,3,7,1,0,1,1,481
15,3,8,1,0,2,0,498
15,3,9,1,0,1,0,434
15,3,10,1,0,2,0,448
15,4,1,1,0,1,1,910
15,4,2,1,0,2,0,459
15,4,3,1,0,1,1,661
15,4,4,1,0,2,0,484
15,4,5,1,0,1,-1,458
15,4,6,1,0,2,0,406
15,4,7,1,0,1,0,429
15,4,8,1,0,2,0,528
15,4,9,1,0,1,-1,460
15,4,10,1,0,2,0,716
15,5,1,1,0,2,0,810
15,5,2,1,0,1,1,459
15,5,3,1,0,1,2,772
15,5,4,1,0,2,0,792
15,5,5,1,0,1,0,395
15,5,6,1,0,2,0,637
15,5,7,1,0,1,0,668
15,5,8,1,0,1,0,397
15,5,9,1,0,2,0,582
15,5,10,1,0,1,1,456
15,6,1,0,0,2,0,1246
15,6,2,0,0,1,-1,458
15,6,3,0,0,2,0,429
15,6,4,0,0,1,1,428
15,6,5,0,0,1,1,397
15,6,6,0,0,2,0,737
15,6,7,0,0,1,0,481
15,6,8,0,0,2,0,764
15,6,9,0,0,1,-1,427
15,6,10,0,0,1,1,373
15,7,1,-1,0,1,0,880
15,7,2,-1,0,2,0,761
15,7,3,-1,0,1,-2,451
15,7,4,-1,0,2,0,417
15,7,5,-1,0,1,-3,449
15,7,6,-1,0,2,0,412
15,7,7,-1,0,2,0,403
15,7,8,-1,0,1,-2,428
15,7,9,-1,0,2,0,427
15,7,10,-1,0,2,0,474
15,8,1,-1,0,1,1,748
15,8,2,-1,0,1,-2,643
15,8,3,-1,0,2,0,419
15,8,4,-1,0,2,0,427
15,8,5,-1,0,1,-1,443
15,8,6,-1,0,2,0,413
15,8,7,-1,0,2,0,862
15,8,8,-1,0,1,0,500
15,8,9,-1,0,2,0,795
15,8,10,-1,0,1,-1,685
15,9,1,1,0,1,2,654
15,9,2,1,0,2,0,465
15,9,3,1,0,2,0,543
15,9,4,1,0,1,-1,448
15,9,5,1,0,2,0,434
15,9,6,1,0,1,1,444
15,9,7,1,0,2,0,473
15,9,8,1,0,2,0,410
15,9,9,1,0,1,0,833
15,9,10,1,0,2,0,403
15,10,1,-1,0,1,-1,1456
15,10,2,-1,0,2,0,394
15,10,3,-1,0,2,0,394
15,10,4,-1,0,1,-1,434
15,10,5,-1,0,2,0,419
15,10,6,-1,0,1,-2,426
15,10,7,-1,0,2,0,381
15,10,8,-1,0,2,0,427
15,10,9,-1,0,1,0,480
15,10,10,-1,0,2,0,450
15,11,1,0,0,1,3,864
15,11,2,0,0,2,0,513
15,11,3,0,0,1,0,450
15,11,4,0,0,2,0,447
15,11,5,0,0,1,0,497
15,11,6,0,0,1,-1,388
15,11,7,0,0,2,0,423
15,11,8,0,0,1,-1,427
15,11,9,0,0,2,0,444
15,11,10,0,0,2,0,350
15,12,1,-1,0,1,-2,744
15,12,2,-1,0,2,0,397
15,12,3,-1,0,2,0,365
15,12,4,-1,0,1,0,382
15,12,5,-1,0,1,-1,543
15,12,6,-1,0,2,0,372
15,12,7,-1,0,2,0,394
15,12,8,-1,0,1,-1,449
15,12,9,-1,0,2,0,398
15,12,10,-1,0,2,0,645
15,13,1,2,0,1,1,559
15,13,2,2,0,1,1,551
15,13,3,2,0,1,3,437
15,13,4,2,0,1,2,419
15,13,5,2,0,1,1,451
15,13,6,2,0,1,3,436
15,13,7,2,0,1,1,591
15,13,8,2,0,1,0,530
15,13,9,2,0,1,1,530
15,13,10,2,0,1,2,430
15,14,1,-1,0,1,-1,733
15,14,2,-1,0,2,0,379
15,14,3,-1,0,2,0,459
15,14,4,-1,0,1,-1,419
15,14,5,-1,0,2,0,469
15,14,6,-1,0,2,0,389
15,14,7,-1,0,1,1,397
15,14,8,-1,0,2,0,644
15,14,9,-1,0,1,-2,1011
15,14,10,-1,0,2,0,397
15,15,1,0,0,1,-1,646
15,15,2,0,0,2,0,419
15,15,3,0,0,1,1,403
15,15,4,0,0,1,1,393
15,15,5,0,0,1,0,397
15,15,6,0,0,1,-1,389
15,15,7,0,0,2,0,418
15,15,8,0,0,1,3,452
15,15,9,0,0,1,-1,450
15,15,10,0,0,2,0,443
15,16,1,1,0,1,1,904
15,16,2,1,0,1,0,427
15,16,3,1,0,2,0,396
15,16,4,1,0,1,-1,505
15,16,5,1,0,2,0,421
15,16,6,1,0,2,0,419
15,16,7,1,0,1,1,443
15,16,8,1,0,2,0,443
15,16,9,1,0,1,1,412
15,16,10,1,0,1,0,467
15,17,1,-1,0,1,0,491
15,17,2,-1,0,2,0,406
15,17,3,-1,0,1,-1,405
15,17,4,-1,0,2,0,394
15,17,5,-1,0,2,0,364
15,17,6,-1,0,1,2,351
15,17,7,-1,0,1,-1,457
15,17,8,-1,0,2,0,419
15,17,9,-1,0,1,-2,498
15,17,10,-1,0,2,0,419
15,18,1,0,0,1,0,897
15,18,2,0,0,1,-2,387
15,18,3,0,0,2,0,422
15,18,4,0,0,2,0,403
15,18,5,0,0,1,1,389
15,18,6,0,0,1,-1,397
15,18,7,0,0,2,0,379
15,18,8,0,0,1,0,419
15,18,9,0,0,2,0,398
15,18,10,0,0,1,0,406
15,19,1,0,0,2,0,1074
15,19,2,0,0,1,0,871
15,19,3,0,0,1,0,420
15,19,4,0,0,1,0,478
15,19,5,0,0,1,0,445
15,19,6,0,0,1,1,413
15,19,7,0,0,1,0,390
15,19,8,0,0,1,0,490
15,19,9,0,0,1,-1,475
15,19,10,0,0,2,0,911
15,20,1,-1,0,1,-1,606
15,20,2,-1,0,2,0,389
15,20,3,-1,0,2,0,1329
15,20,4,-1,0,1,-2,472
15,20,5,-1,0,2,0,434
15,20,6,-1,0,1,0,519
15,20,7,-1,0,1,-1,422
15,20,8,-1,0,2,0,403
15,20,9,-1,0,2,0,411
15,20,10,-1,0,2,0,443
16,1,1,1,0,1,1,2532
16,1,2,1,0,1,0,2667
16,1,3,1,0,1,3,1571
16,1,4,1,0,2,0,1112
16,1,5,1,0,1,0,793
16,1,6,1,0,1,0,570
16,1,7,1,0,1,1,635
16,1,8,1,0,1,4,2616
16,1,9,1,0,1,2,862
16,1,10,1,0,1,0,786
16,2,1,1,0,1,2,1538
16,2,2,1,0,1,2,733
16,2,3,1,0,1,2,784
16,2,4,1,0,1,0,1144
16,2,5,1,0,1,1,684
16,2,6,1,0,1,1,1095
16,2,7,1,0,1,2,1259
16,2,8,1,0,1,1,904
16,2,9,1,0,1,3,818
16,2,10,1,0,1,2,885
16,3,1,-1,0,1,1,3536
16,3,2,-1,0,1,-1,600
16,3,3,-1,0,1,0,770
16,3,4,-1,0,1,-2,687
16,3,5,-1,0,2,0,823
16,3,6,-1,0,1,-1,624
16,3,7,-1,0,1,-1,599
16,3,8,-1,0,1,0,613
16,3,9,-1,0,1,-2,596
16,3,10,-1,0,1,-1,556
16,4,1,-1,0,1,0,1448
16,4,2,-1,0,1,-1,919
16,4,3,-1,0,1,-2,625
16,4,4,-1,0,1,-2,604
16,4,5,-1,0,1,-1,986
16,4,6,-1,0,2,0,811
16,4,7,-1,0,1,-2,737
16,4,8,-1,0,1,0,679
16,4,9,-1,0,1,-3,904
16,4,10,-1,0,1,-3,746
16,5,1,0,0,1,0,8608
16,5,2,0,0,1,1,702
16,5,3,0,0,1,0,540
16,5,4,0,0,1,-2,612
16,5,5,0,0,1,0,579
16,5,6,0,0,1,-2,709
16,5,7,0,0,2,0,894
16,5,8,0,0,2,0,509
16,5,9,0,0,1,2,816
16,5,10,0,0,1,1,804
16,6,1,0,0,1,1,4584
16,6,2,0,0,1,0,643
16,6,3,0,0,1,1,676
16,6,4,0,0,1,1,663
16,6,5,0,0,1,-2,1704
16,6,6,0,0,1,2,705
16,6,7,0,0,1,0,718
16,6,8,0,0,1,-2,722
16,6,9,0,0,1,1,753
16,6,10,0,0,1,1,737
16,7,1,-1,0,1,-2,3424
16,7,2,-1,0,2,0,726
16,7,3,-1,0,1,-1,562
16,7,4,-1,0,2,0,718
16,7,5,-1,0,1,-1,599
16,7,6,-1,0,2,0,691
16,7,7,-1,0,2,0,499
16,7,8,-1,0,1,-1,531
16,7,9,-1,0,2,0,573
16,7,10,-1,0,2,0,538
16,8,1,0,0,1,-2,1123
16,8,2,0,0,2,0,988
16,8,3,0,0,1,-1,504
16,8,4,0,0,1,1,479
16,8,5,0,0,1,-1,603
16,8,6,0,0,1,-1,507
16,8,7,0,0,1,-1,866
16,8,8,0,0,1,-1,653
16,8,9,0,0,1,1,632
16,8,10,0,0,1,0,1230
16,9,1,0,0,1,1,994
16,9,2,0,0,1,-1,509
16,9,3,0,0,1,-1,595
16,9,4,0,0,1,1,604
16,9,5,0,0,1,2,571
16,9,6,0,0,1,-2,542
16,9,7,0,0,1,-1,560
16,9,8,0,0,1,-2,885
16,9,9,0,0,1,-1,572
16,9,10,0,0,1,-1,622
16,10,1,-2,0,1,1,4504
16,10,2,-2,0,1,-1,695
16,10,3,-2,0,1,-2,593
16,10,4,-2,0,1,-4,602
16,10,5,-2,0,1,-4,541
16,10,6,-2,0,1,-2,509
16,10,7,-2,0,1,-1,608
16,10,8,-2,0,1,-4,775
16,10,9,-2,0,1,-3,653
16,10,10,-2,0,1,-4,662
16,11,1,2,0,1,1,1229
16,11,2,2,0,1,2,667
16,11,3,2,0,1,3,594
16,11,4,2,0,1,1,800
16,11,5,2,0,1,3,754
16,11,6,2,0,1,3,585
16,11,7,2,0,1,1,582
16,11,8,2,0,1,2,594
16,11,9,2,0,1,3,541
16,11,10,2,0,1,2,635
16,12,1,-1,0,2,0,1368
16,12,2,-1,0,1,-1,539
16,12,3,-1,0,2,0,468
16,12,4,-1,0,1,-2,717
16,12,5,-1,0,2,0,499
16,12,6,-1,0,1,-2,531
16,12,7,-1,0,2,0,563
16,12,8,-1,0,1,-3,576
16,12,9,-1,0,2,0,512
16,12,10,-1,0,1,-4,517
16,13,1,0,0,1,0,832
16,13,2,0,0,2,0,688
16,13,3,0,0,1,1,631
16,13,4,0,0,1,1,1550
16,13,5,0,0,1,-1,587
16,13,6,0,0,1,-2,557
16,13,7,0,0,1,-2,639
16,13,8,0,0,2,0,482
16,13,9,0,0,1,0,552
16,13,10,0,0,2,0,507
16,14,1,1,0,1,1,1310
16,14,2,1,0,1,1,572
16,14,3,1,0,1,0,624
16,14,4,1,0,1,2,542
16,14,5,1,0,1,0,1299
16,14,6,1,0,1,1,577
16,14,7,1,0,1,0,539
16,14,8,1,0,1,3,623
16,14,9,1,0,1,0,447
16,14,10,1,0,1,1,530
16,15,1,0,0,1,1,1019
16,15,2,0,0,1,-1,563
16,15,3,0,0,1,2,595
16,15,4,0,0,2,0,469
16,15,5,0,0,1,0,479
16,15,6,0,0,2,0,569
16,15,7,0,0,1,-1,510
16,15,8,0,0,2,0,478
16,15,9,0,0,1,1,556
16,15,10,0,0,1,-1,1033
16,16,1,0,0,1,-1,914
16,16,2,0,0,1,-1,1039
16,16,3,0,0,2,0,1220
16,16,4,0,0,1,-1,646
16,16,5,0,0,2,0,471
16,16,6,0,0,1,1,500
16,16,7,0,0,2,0,499
16,16,8,0,0,1,-1,557
16,16,9,0,0,1,0,432
16,16,10,0,0,2,0,454
16,17,1,-1,0,1,-2,1315
16,17,2,-1,0,2,0,1444
16,17,3,-1,0,1,0,747
16,17,4,-1,0,1,-1,568
16,17,5,-1,0,1,-2,675
16,17,6,-1,0,1,-1,519
16,17,7,-1,0,1,0,571
16,17,8,-1,0,2,0,619
16,17,9,-1,0,1,-1,538
16,17,10,-1,0,2,0,1039
16,18,1,1,0,1,2,1678
16,18,2,1,0,1,0,1010
16,18,3,1,0,1,-1,707
16,18,4,1,0,2,0,561
16,18,5,1,0,1,1,609
16,18,6,1,0,1,0,480
16,18,7,1,0,2,0,729
16,18,8,1,0,1,1,517
16,18,9,1,0,1,1,531
16,18,10,1,0,1,1,520
16,19,1,0,0,1,0,1218
16,19,2,0,0,1,0,479
16,19,3,0,0,1,2,457
16,19,4,0,0,1,2,488
16,19,5,0,0,1,0,556
16,19,6,0,0,1,2,398
16,19,7,0,0,1,-1,627
16,19,8,0,0,1,0,802
16,19,9,0,0,1,1,556
16,19,10,0,0,1,2,400
16,20,1,-1,0,1,-1,1877
16,20,2,-1,0,2,0,508
16,20,3,-1,0,1,-2,713
16,20,4,-1,0,1,0,1190
16,20,5,-1,0,2,0,505
16,20,6,-1,0,1,-1,464
16,20,7,-1,0,2,0,681
16,20,8,-1,0,1,0,522
16,20,9,-1,0,1,1,758
16,20,10,-1,0,1,0,1491
17,1,1,-1,0,1,-2,1091
17,1,2,-1,0,2,0,432
17,1,3,-1,0,2,0,329
17,1,4,-1,0,2,0,311
17,1,5,-1,0,1,-2,554
17,1,6,-1,0,2,0,319
17,1,7,-1,0,2,0,344
17,1,8,-1,0,2,0,343
17,1,9,-1,0,1,-1,685
17,1,10,-1,0,1,-2,310
17,2,1,-1,0,2,0,466
17,2,2,-1,0,1,0,387
17,2,3,-1,0,2,0,333
17,2,4,-1,0,1,-1,367
17,2,5,-1,0,2,0,279
17,2,6,-1,0,2,0,351
17,2,7,-1,0,2,0,310
17,2,8,-1,0,2,0,321
17,2,9,-1,0,1,-1,401
17,2,10,-1,0,2,0,347
17,3,1,1,0,2,0,344
17,3,2,1,0,2,0,313
17,3,3,1,0,2,0,313
17,3,4,1,0,2,0,698
17,3,5,1,0,1,3,329
17,3,6,1,0,1,1,409
17,3,7,1,0,1,1,327
17,3,8,1,0,1,0,375
17,3,9,1,0,1,2,327
17,3,10,1,0,1,1,345
17,4,1,-1,0,1,-3,340
17,4,2,-1,0,2,0,311
17,4,3,-1,0,2,0,335
17,4,4,-1,0,2,0,327
17,4,5,-1,0,2,0,329
17,4,6,-1,0,2,0,327
17,4,7,-1,0,2,0,327
17,4,8,-1,0,2,0,304
17,4,9,-1,0,2,0,329
17,4,10,-1,0,2,0,311
17,5,1,-2,0,2,0,371
17,5,2,-2,0,1,-3,697
17,5,3,-2,0,2,0,305
17,5,4,-2,0,2,0,305
17,5,5,-2,0,2,0,327
17,5,6,-2,0,2,0,336
17,5,7,-2,0,2,0,329
17,5,8,-2,0,2,0,322
17,5,9,-2,0,2,0,319
17,5,10,-2,0,2,0,316
17,6,1,-2,0,2,0,479
17,6,2,-2,0,1,-1,328
17,6,3,-2,0,2,0,343
17,6,4,-2,0,1,-1,290
17,6,5,-2,0,2,0,320
17,6,6,-2,0,2,0,314
17,6,7,-2,0,2,0,338
17,6,8,-2,0,2,0,338
17,6,9,-2,0,2,0,319
17,6,10,-2,0,2,0,297
17,7,1,0,0,2,0,328
17,7,2,0,0,1,0,305
17,7,3,0,0,2,0,304
17,7,4,0,0,2,0,295
17,7,5,0,0,2,0,322
17,7,6,0,0,2,0,311
17,7,7,0,0,1,-1,279
17,7,8,0,0,2,0,305
17,7,9,0,0,2,0,287
17,7,10,0,0,2,0,302
17,8,1,0,0,1,0,320
17,8,2,0,0,1,0,310
17,8,3,0,0,1,0,305
17,8,4,0,0,1,1,319
17,8,5,0,0,1,0,311
17,8,6,0,0,1,0,4305
17,8,7,0,0,1,-1,439
17,8,8,0,0,2,0,431
17,8,9,0,0,1,-1,314
17,8,10,0,0,1,0,273
17,9,1,0,0,1,1,384
17,9,2,0,0,1,0,295
17,9,3,0,0,1,-2,296
17,9,4,0,0,2,0,299
17,9,5,0,0,2,0,301
17,9,6,0,0,2,0,703
17,9,7,0,0,2,0,594
17,9,8,0,0,2,0,314
17,9,9,0,0,2,0,360
17,9,10,0,0,2,0,420
17,10,1,0,0,2,0,304
17,10,2,0,0,1,-2,338
17,10,3,0,0,2,0,321
17,10,4,0,0,2,0,328
17,10,5,0,0,2,0,303
17,10,6,0,0,2,0,337
17,10,7,0,0,2,0,288
17,10,8,0,0,2,0,303
17,10,9,0,0,2,0,289
17,10,10,0,0,2,0,278
17,11,1,1,0,2,0,336
17,11,2,1,0,1,2,319
17,11,3,1,0,1,1,271
17,11,4,1,0,1,3,280
17,11,5,1,0,1,0,263
17,11,6,1,0,1,1,273
17,11,7,1,0,1,3,287
17,11,8,1,0,1,3,287
17,11,9,1,0,1,1,297
17,11,10,1,0,1,2,278
17,12,1,1,0,1,0,320
17,12,2,1,0,1,1,255
17,12,3,1,0,1,2,273
17,12,4,1,0,1,2,263
17,12,5,1,0,1,0,240
17,12,6,1,0,1,2,257
17,12,7,1,0,1,1,276
17,12,8,1,0,1,2,280
17,12,9,1,0,1,1,295
17,12,10,1,0,1,1,266
17,13,1,2,0,1,1,336
17,13,2,2,0,1,4,274
17,13,3,2,0,1,2,298
17,13,4,2,0,1,1,298
17,13,5,2,0,1,0,242
17,13,6,2,0,1,0,263
17,13,7,2,0,1,1,239
17,13,8,2,0,1,2,634
17,13,9,2,0,1,3,287
17,13,10,2,0,1,2,2969
17,14,1,-1,0,1,-1,705
17,14,2,-1,0,1,-1,314
17,14,3,-1,0,1,-2,262
17,14,4,-1,0,2,0,305
17,14,5,-1,0,2,0,343
17,14,6,-1,0,2,0,351
17,14,7,-1,0,2,0,289
17,14,8,-1,0,2,0,295
17,14,9,-1,0,2,0,287
17,14,10,-1,0,2,0,313
17,15,1,2,0,2,0,466
17,15,2,2,0,1,2,289
17,15,3,2,0,1,2,239
17,15,4,2,0,1,2,256
17,15,5,2,0,1,2,256
17,15,6,2,0,1,2,258
17,15,7,2,0,1,2,2288
17,15,8,2,0,1,4,330
17,15,9,2,0,1,2,272
17,15,10,2,0,1,1,264
17,16,1,0,0,1,-1,304
17,16,2,0,0,1,0,306
17,16,3,0,0,1,1,617
17,16,4,0,0,1,-2,329
17,16,5,0,0,2,0,288
17,16,6,0,0,2,0,311
17,16,7,0,0,2,0,287
17,16,8,0,0,2,0,305
17,16,9,0,0,2,0,303
17,16,10,0,0,2,0,263
17,17,1,0,0,1,0,556
17,17,2,0,0,1,1,239
17,17,3,0,0,1,0,249
17,17,4,0,0,1,-2,303
17,17,5,0,0,1,-1,295
17,17,6,0,0,2,0,361
17,17,7,0,0,2,0,263
17,17,8,0,0,2,0,319
17,17,9,0,0,2,0,337
17,17,10,0,0,2,0,321
17,18,1,0,0,1,0,632
17,18,2,0,0,1,1,257
17,18,3,0,0,1,1,255
17,18,4,0,0,1,0,215
17,18,5,0,0,1,0,276
17,18,6,0,0,1,1,273
17,18,7,0,0,1,1,411
17,18,8,0,0,1,0,264
17,18,9,0,0,1,-1,295
17,18,10,0,0,2,0,639
17,19,1,0,0,1,0,330
17,19,2,0,0,1,0,231
17,19,3,0,0,1,-1,255
17,19,4,0,0,1,0,369
17,19,5,0,0,2,0,302
17,19,6,0,0,2,0,279
17,19,7,0,0,2,0,329
17,19,8,0,0,2,0,254
17,19,9,0,0,2,0,295
17,19,10,0,0,2,0,272
17,20,1,2,0,1,2,346
17,20,2,2,0,1,3,243
17,20,3,2,0,1,2,167
17,20,4,2,0,1,3,450
17,20,5,2,0,1,2,256
17,20,6,2,0,1,3,265
17,20,7,2,0,1,2,311
17,20,8,2,0,1,1,287
17,20,9,2,0,1,3,249
17,20,10,2,0,1,2,593
18,1,1,1,0,1,1,2101
18,1,2,1,0,1,0,914
18,1,3,1,0,1,2,560
18,1,4,1,0,1,2,899
18,1,5,1,0,1,-2,816
18,1,6,1,0,1,1,936
18,1,7,1,0,1,1,1107
18,1,8,1,0,1,1,1096
18,1,9,1,0,2,0,972
18,1,10,1,0,1,0,688
18,2,1,0,0,1,1,736
18,2,2,0,0,1,-1,648
18,2,3,0,0,1,-1,560
18,2,4,0,0,1,0,511
18,2,5,0,0,1,2,548
18,2,6,0,0,1,-1,528
18,2,7,0,0,1,0,915
18,2,8,0,0,1,-2,656
18,2,9,0,0,1,1,496
18,2,10,0,0,1,-1,580
18,3,1,-1,0,1,-1,756
18,3,2,-1,0,1,-1,496
18,3,3,-1,0,1,-1,753
18,3,4,-1,0,1,0,512
18,3,5,-1,0,1,0,528
18,3,6,-1,0,1,-2,495
18,3,7,-1,0,1,-2,688
18,3,8,-1,0,1,1,1152
18,3,9,-1,0,1,0,912
18,3,10,-1,0,1,-1,496
18,4,1,-1,0,1,-2,640
18,4,2,-1,0,1,-1,496
18,4,3,-1,0,1,-1,744
18,4,4,-1,0,1,0,464
18,4,5,-1,0,1,-2,452
18,4,6,-1,0,1,-1,552
18,4,7,-1,0,1,-1,448
18,4,8,-1,0,1,0,480
18,4,9,-1,0,1,-1,516
18,4,10,-1,0,1,0,448
18,5,1,1,0,1,-1,848
18,5,2,1,0,1,1,432
18,5,3,1,0,1,2,462
18,5,4,1,0,1,2,916
18,5,5,1,0,1,1,449
18,5,6,1,0,1,1,416
18,5,7,1,0,1,1,432
18,5,8,1,0,1,2,448
18,5,9,1,0,1,2,448
18,5,10,1,0,1,-1,447
18,6,1,0,0,1,0,657
18,6,2,0,0,1,0,420
18,6,3,0,0,1,0,416
18,6,4,0,0,1,1,431
18,6,5,0,0,1,2,416
18,6,6,0,0,1,-1,432
18,6,7,0,0,1,2,656
18,6,8,0,0,1,1,400
18,6,9,0,0,1,1,496
18,6,10,0,0,1,0,608
18,7,1,1,0,1,3,871
18,7,2,1,0,1,1,608
18,7,3,1,0,1,-1,848
18,7,4,1,0,1,1,1280
18,7,5,1,0,1,1,416
18,7,6,1,0,1,1,592
18,7,7,1,0,1,1,803
18,7,8,1,0,1,-1,448
18,7,9,1,0,1,2,464
18,7,10,1,0,1,1,452
18,8,1,0,0,1,-1,904
18,8,2,0,0,1,-1,590
18,8,3,0,0,1,0,783
18,8,4,0,0,1,-2,388
18,8,5,0,0,1,1,416
18,8,6,0,0,1,0,2468
18,8,7,0,0,1,0,431
18,8,8,0,0,1,-1,400
18,8,9,0,0,1,-1,416
18,8,10,0,0,1,0,638
18,9,1,0,0,1,0,832
18,9,2,0,0,1,1,595
18,9,3,0,0,1,-1,415
18,9,4,0,0,1,-1,400
18,9,5,0,0,1,-1,576
18,9,6,0,0,1,-1,416
18,9,7,0,0,1,0,400
18,9,8,0,0,1,0,560
18,9,9,0,0,1,-1,504
18,9,10,0,0,1,0,432
18,10,1,1,0,1,1,655
18,10,2,1,0,1,2,416
18,10,3,1,0,1,1,416
18,10,4,1,0,1,2,368
18,10,5,1,0,1,2,432
18,10,6,1,0,1,0,464
18,10,7,1,0,1,2,448
18,10,8,1,0,1,2,480
18,10,9,1,0,1,2,448
18,10,10,1,0,1,1,452
18,11,1,1,0,1,3,640
18,11,2,1,0,1,1,404
18,11,3,1,0,1,1,495
18,11,4,1,0,1,-1,432
18,11,5,1,0,1,2,468
18,11,6,1,0,1,1,432
18,11,7,1,0,1,2,400
18,11,8,1,0,1,2,436
18,11,9,1,0,1,1,448
18,11,10,1,0,1,1,461
18,12,1,0,0,1,0,641
18,12,2,0,0,1,0,464
18,12,3,0,0,1,-1,436
18,12,4,0,0,1,1,400
18,12,5,0,0,1,-1,400
18,12,6,0,0,1,-1,384
18,12,7,0,0,1,-2,384
18,12,8,0,0,1,-2,448
18,12,9,0,0,1,1,432
18,12,10,0,0,1,0,384
18,13,1,-1,0,1,-1,660
18,13,2,-1,0,1,-2,400
18,13,3,-1,0,1,0,494
18,13,4,-1,0,1,-2,448
18,13,5,-1,0,1,-2,1104
18,13,6,-1,0,1,0,544
18,13,7,-1,0,1,0,420
18,13,8,-1,0,1,-1,400
18,13,9,-1,0,1,0,432
18,13,10,-1,0,1,-1,419
18,14,1,-1,0,1,-1,863
18,14,2,-1,0,1,-2,496
18,14,3,-1,0,1,0,368
18,14,4,-1,0,1,0,400
18,14,5,-1,0,1,-2,384
18,14,6,-1,0,1,-1,401
18,14,7,-1,0,1,-1,399
18,14,8,-1,0,1,-1,639
18,14,9,-1,0,1,-1,448
18,14,10,-1,0,1,-1,416
18,15,1,1,0,1,0,575
18,15,2,1,0,1,1,464
18,15,3,1,0,1,2,416
18,15,4,1,0,1,1,432
18,15,5,1,0,1,2,432
18,15,6,1,0,1,3,432
18,15,7,1,0,1,1,464
18,15,8,1,0,1,1,592
18,15,9,1,0,1,2,496
18,15,10,1,0,1,0,416
18,16,1,1,0,1,1,576
18,16,2,1,0,1,0,408
18,16,3,1,0,1,2,468
18,16,4,1,0,1,3,468
18,16,5,1,0,1,1,400
18,16,6,1,0,1,0,3568
18,16,7,1,0,1,2,400
18,16,8,1,0,1,0,400
18,16,9,1,0,1,3,400
18,16,10,1,0,1,3,671
18,17,1,1,0,1,2,624
18,17,2,1,0,1,3,384
18,17,3,1,0,1,1,367
18,17,4,1,0,1,0,416
18,17,5,1,0,1,0,404
18,17,6,1,0,1,0,448
18,17,7,1,0,1,1,464
18,17,8,1,0,1,2,420
18,17,9,1,0,1,1,480
18,17,10,1,0,1,0,432
18,18,1,0,0,1,0,6569
18,18,2,0,0,1,-1,401
18,18,3,0,0,1,1,596
18,18,4,0,0,1,0,496
18,18,5,0,0,1,-1,416
18,18,6,0,0,1,0,464
18,18,7,0,0,1,0,416
18,18,8,0,0,1,0,416
18,18,9,0,0,1,0,416
18,18,10,0,0,1,1,436
18,19,1,-1,0,1,1,528
18,19,2,-1,0,1,-1,388
18,19,3,-1,0,1,-3,448
18,19,4,-1,0,1,0,415
18,19,5,-1,0,1,0,452
18,19,6,-1,0,1,-2,432
18,19,7,-1,0,1,-1,448
18,19,8,-1,0,1,-1,740
18,19,9,-1,0,1,-1,416
18,19,10,-1,0,1,-1,432
18,20,1,0,0,1,3,984
18,20,2,0,0,1,0,468
18,20,3,0,0,1,-1,480
18,20,4,0,0,1,1,416
18,20,5,0,0,1,0,420
18,20,6,0,0,1,-2,543
18,20,7,0,0,1,-1,480
18,20,8,0,0,1,1,416
18,20,9,0,0,1,0,448
18,20,10,0,0,1,0,416
19,1,1,0,0,1,0,895
19,1,2,0,0,2,0,416
19,1,3,0,0,2,0,353
19,1,4,0,0,1,-1,373
19,1,5,0,0,2,0,316
19,1,6,0,0,2,0,316
19,1,7,0,0,2,0,305
19,1,8,0,0,2,0,295
19,1,9,0,0,1,0,326
19,1,10,0,0,1,-1,345
19,2,1,0,0,2,0,473
19,2,2,0,0,1,1,310
19,2,3,0,0,1,1,274
19,2,4,0,0,1,0,256
19,2,5,0,0,1,0,316
19,2,6,0,0,1,0,268
19,2,7,0,0,2,0,251
19,2,8,0,0,2,0,305
19,2,9,0,0,1,2,281
19,2,10,0,0,1,-1,275
19,3,1,-1,0,2,0,409
19,3,2,-1,0,2,0,341
19,3,3,-1,0,2,0,315
19,3,4,-1,0,1,0,298
19,3,5,-1,0,1,-3,290
19,3,6,-1,0,1,-3,292
19,3,7,-1,0,1,0,322
19,3,8,-1,0,2,0,304
19,3,9,-1,0,2,0,875
19,3,10,-1,0,2,0,345
19,4,1,0,0,2,0,462
19,4,2,0,0,2,0,318
19,4,3,0,0,2,0,318
19,4,4,0,0,2,0,321
19,4,5,0,0,2,0,349
19,4,6,0,0,1,-2,283
19,4,7,0,0,1,0,259
19,4,8,0,0,2,0,464
19,4,9,0,0,2,0,283
19,4,10,0,0,2,0,250
19,5,1,-1,0,2,0,360
19,5,2,-1,0,2,0,284
19,5,3,-1,0,2,0,260
19,5,4,-1,0,1,-2,243
19,5,5,-1,0,1,-2,276
19,5,6,-1,0,1,-1,234
19,5,7,-1,0,2,0,259
19,5,8,-1,0,2,0,212
19,5,9,-1,0,2,0,252
19,5,10,-1,0,2,0,253
19,6,1,-1,0,2,0,696
19,6,2,-1,0,2,0,268
19,6,3,-1,0,2,0,285
19,6,4,-1,0,2,0,258
19,6,5,-1,0,1,-1,246
19,6,6,-1,0,2,0,710
19,6,7,-1,0,2,0,243
19,6,8,-1,0,2,0,237
19,6,9,-1,0,1,-1,336
19,6,10,-1,0,1,-2,284
19,7,1,2,0,2,0,402
19,7,2,2,0,2,0,283
19,7,3,2,0,2,0,277
19,7,4,2,0,2,0,291
19,7,5,2,0,2,0,836
19,7,6,2,0,2,0,277
19,7,7,2,0,2,0,336
19,7,8,2,0,1,3,852
19,7,9,2,0,1,2,289
19,7,10,2,0,1,1,286
19,8,1,0,0,1,-1,440
19,8,2,0,0,1,-2,274
19,8,3,0,0,1,-2,276
19,8,4,0,0,1,-1,268
19,8,5,0,0,2,0,258
19,8,6,0,0,2,0,273
19,8,7,0,0,2,0,272
19,8,8,0,0,2,0,259
19,8,9,0,0,2,0,276
19,8,10,0,0,2,0,258
19,9,1,0,0,2,0,362
19,9,2,0,0,2,0,268
19,9,3,0,0,2,0,303
19,9,4,0,0,2,0,302
19,9,5,0,0,2,0,309
19,9,6,0,0,2,0,274
19,9,7,0,0,1,-1,308
19,9,8,0,0,1,0,298
19,9,9,0,0,2,0,357
19,9,10,0,0,2,0,245
19,10,1,-2,0,2,0,332
19,10,2,-2,0,2,0,284
19,10,3,-2,0,1,-2,300
19,10,4,-2,0,1,-2,281
19,10,5,-2,0,2,0,297
19,10,6,-2,0,2,0,283
19,10,7,-2,0,2,0,433
19,10,8,-2,0,2,0,284
19,10,9,-2,0,2,0,312
19,10,10,-2,0,2,0,278
19,11,1,0,0,2,0,511
19,11,2,0,0,2,0,246
19,11,3,0,0,2,0,280
19,11,4,0,0,2,0,288
19,11,5,0,0,2,0,276
19,11,6,0,0,1,0,266
19,11,7,0,0,1,1,287
19,11,8,0,0,2,0,274
19,11,9,0,0,2,0,273
19,11,10,0,0,2,0,259
19,12,1,0,0,2,0,3717
19,12,2,0,0,2,0,296
19,12,3,0,0,2,0,865
19,12,4,0,0,1,0,284
19,12,5,0,0,2,0,297
19,12,6,0,0,1,-1,518
19,12,7,0,0,1,3,309
19,12,8,0,0,1,1,295
19,12,9,0,0,1,-1,274
19,12,10,0,0,2,0,502
19,13,1,0,0,2,0,502
19,13,2,0,0,1,1,285
19,13,3,0,0,1,0,334
19,13,4,0,0,1,1,273
19,13,5,0,0,1,0,308
19,13,6,0,0,1,1,321
19,13,7,0,0,1,0,325
19,13,8,0,0,2,0,1118
19,13,9,0,0,2,0,427
19,13,10,0,0,2,0,508
19,14,1,0,0,1,2,840
19,14,2,0,0,1,0,511
19,14,3,0,0,1,0,288
19,14,4,0,0,1,1,319
19,14,5,0,0,1,1,357
19,14,6,0,0,2,0,8512
19,14,7,0,0,2,0,293
19,14,8,0,0,2,0,324
19,14,9,0,0,2,0,257
19,14,10,0,0,2,0,324
19,15,1,0,0,1,0,1121
19,15,2,0,0,2,0,303
19,15,3,0,0,2,0,283
19,15,4,0,0,2,0,323
19,15,5,0,0,2,0,330
19,15,6,0,0,2,0,322
19,15,7,0,0,2,0,330
19,15,8,0,0,2,0,321
19,15,9,0,0,2,0,335
19,15,10,0,0,1,1,413
19,16,1,0,0,1,-1,457
19,16,2,0,0,1,1,327
19,16,3,0,0,2,0,290
19,16,4,0,0,2,0,297
19,16,5,0,0,2,0,294
19,16,6,0,0,2,0,256
19,16,7,0,0,2,0,325
19,16,8,0,0,2,0,318
19,16,9,0,0,2,0,341
19,16,10,0,0,2,0,380
19,17,1,1,0,1,1,441
19,17,2,1,0,1,0,337
19,17,3,1,0,1,-1,277
19,17,4,1,0,1,1,275
19,17,5,1,0,2,0,446
19,17,6,1,0,2,0,286
19,17,7,1,0,2,0,285
19,17,8,1,0,2,0,317
19,17,9,1,0,2,0,298
19,17,10,1,0,2,0,299
19,18,1,1,0,1,0,406
19,18,2,1,0,1,0,294
19,18,3,1,0,1,1,257
19,18,4,1,0,1,2,266
19,18,5,1,0,1,4,293
19,18,6,1,0,1,2,312
19,18,7,1,0,1,1,300
19,18,8,1,0,1,1,307
19,18,9,1,0,1,2,302
19,18,10,1,0,1,1,290
19,19,1,-1,0,1,-2,339
19,19,2,-1,0,1,-1,365
19,19,3,-1,0,2,0,256
19,19,4,-1,0,2,0,259
19,19,5,-1,0,2,0,267
19,19,6,-1,0,2,0,258
19,19,7,-1,0,2,0,300
19,19,8,-1,0,2,0,278
19,19,9,-1,0,2,0,288
19,19,10,-1,0,2,0,277
19,20,1,0,0,2,0,886
19,20,2,0,0,2,0,274
19,20,3,0,0,2,0,802
19,20,4,0,0,2,0,305
19,20,5,0,0,2,0,274
19,20,6,0,0,2,0,265
19,20,7,0,0,2,0,1768
19,20,8,0,0,2,0,278
19,20,9,0,0,2,0,298
19,20,10,0,0,2,0,325
20,1,1,0,0,1,0,2023
20,1,2,0,0,2,0,1176
20,1,3,0,0,1,-1,1096
20,1,4,0,0,1,0,1217
20,1,5,0,0,2,0,1051
20,1,6,0,0,1,0,989
20,1,7,0,0,1,-1,1059
20,1,8,0,0,1,1,996
20,1,9,0,0,1,1,1113
20,1,10,0,0,1,-2,1245
20,2,1,-1,0,1,0,1573
20,2,2,-1,0,1,0,1351
20,2,3,-1,0,1,-1,768
20,2,4,-1,0,1,-2,859
20,2,5,-1,0,2,0,910
20,2,6,-1,0,1,-1,772
20,2,7,-1,0,2,0,721
20,2,8,-1,0,1,-1,917
20,2,9,-1,0,1,1,787
20,2,10,-1,0,1,-1,851
20,3,1,-1,0,1,-1,1632
20,3,2,-1,0,2,0,817
20,3,3,-1,0,1,-1,796
20,3,4,-1,0,1,-3,742
20,3,5,-1,0,1,-1,766
20,3,6,-1,0,1,-1,784
20,3,7,-1,0,1,-1,754
20,3,8,-1,0,1,1,955
20,3,9,-1,0,2,0,924
20,3,10,-1,0,1,-1,965
20,4,1,-1,0,1,-2,1249
20,4,2,-1,0,1,-1,1354
20,4,3,-1,0,1,0,856
20,4,4,-1,0,2,0,961
20,4,5,-1,0,1,-2,1044
20,4,6,-1,0,1,-1,1101
20,4,7,-1,0,1,1,1077
20,4,8,-1,0,1,0,886
20,4,9,-1,0,2,0,916
20,4,10,-1,0,1,-1,1007
20,5,1,3,0,1,2,1059
20,5,2,3,0,1,4,1174
20,5,3,3,0,1,0,1301
20,5,4,3,0,2,0,1078
20,5,5,3,0,1,5,861
20,5,6,3,0,2,0,1396
20,5,7,3,0,1,2,820
20,5,8,3,0,1,4,1005
20,5,9,3,0,1,2,1037
20,5,10,3,0,1,4,1006
20,6,1,0,0,1,-1,1011
20,6,2,0,0,1,1,838
20,6,3,0,0,2,0,735
20,6,4,0,0,1,0,729
20,6,5,0,0,1,0,868
20,6,6,0,0,2,0,771
20,6,7,0,0,1,2,794
20,6,8,0,0,1,2,818
20,6,9,0,0,1,-1,831
20,6,10,0,0,1,1,861
20,7,1,0,0,1,1,1377
20,7,2,0,0,2,0,685
20,7,3,0,0,1,-1,1024
20,7,4,0,0,1,-1,981
20,7,5,0,0,2,0,25767
20,7,6,0,0,1,-1,733
20,7,7,0,0,1,0,937
20,7,8,0,0,1,-2,782
20,7,9,0,0,2,0,728
20,7,10,0,0,1,0,740
20,8,1,1,0,1,-1,1421
20,8,2,1,0,1,2,869
20,8,3,1,0,1,3,1094
20,8,4,1,0,1,2,998
20,8,5,1,0,1,-1,2987
20,8,6,1,0,1,1,2048
20,8,7,1,0,1,2,1093
20,8,8,1,0,1,1,2536
20,8,9,1,0,1,1,1009
20,8,10,1,0,1,1,1085
20,9,1,-1,0,1,0,1844
20,9,2,-1,0,2,0,747
20,9,3,-1,0,1,0,798
20,9,4,-1,0,1,-2,614
20,9,5,-1,0,1,-1,739
20,9,6,-1,0,2,0,670
20,9,7,-1,0,1,-1,1097
20,9,8,-1,0,1,0,924
20,9,9,-1,0,1,-1,962
20,9,10,-1,0,1,-1,1064
20,10,1,-1,0,1,-1,1132
20,10,2,-1,0,1,-1,1014
20,10,3,-1,0,1,-2,1053
20,10,4,-1,0,1,0,1037
20,10,5,-1,0,1,0,1292
20,10,6,-1,0,2,0,745
20,10,7,-1,0,1,-2,782
20,10,8,-1,0,1,-3,877
20,10,9,-1,0,1,0,1071
20,10,10,-1,0,2,0,838
20,11,1,1,0,1,0,1061
20,11,2,1,0,1,2,997
20,11,3,1,0,2,0,985
20,11,4,1,0,1,0,1326
20,11,5,1,0,1,3,2989
20,11,6,1,0,2,0,1132
20,11,7,1,0,1,2,1129
20,11,8,1,0,1,1,2478
20,11,9,1,0,2,0,1158
20,11,10,1,0,1,1,1117
20,12,1,-1,0,1,-2,1309
20,12,2,-1,0,1,-2,1079
20,12,3,-1,0,2,0,691
20,12,4,-1,0,1,-1,669
20,12,5,-1,0,2,0,603
20,12,6,-1,0,1,1,598
20,12,7,-1,0,1,-3,715
20,12,8,-1,0,2,0,647
20,12,9,-1,0,1,-1,645
20,12,10,-1,0,2,0,707
20,13,1,-2,0,2,0,2052
20,13,2,-2,0,1,-3,648
20,13,3,-2,0,1,-2,614
20,13,4,-2,0,1,-2,566
20,13,5,-2,0,2,0,590
20,13,6,-2,0,1,-1,708
20,13,7,-2,0,2,0,902
20,13,8,-2,0,1,-3,947
20,13,9,-2,0,2,0,1574
20,13,10,-2,0,1,-3,894
20,14,1,2,0,2,0,2206
20,14,2,2,0,1,2,789
20,14,3,2,0,2,0,831
20,14,4,2,0,1,3,1212
20,14,5,2,0,2,0,904
20,14,6,2,0,1,1,821
20,14,7,2,0,1,1,701
20,14,8,2,0,1,2,956
20,14,9,2,0,1,1,886
20,14,10,2,0,2,0,878
20,15,1,0,0,1,1,1321
20,15,2,0,0,1,0,967
20,15,3,0,0,2,0,631
20,15,4,0,0,1,1,792
20,15,5,0,0,1,0,865
20,15,6,0,0,2,0,816
20,15,7,0,0,1,1,1494
20,15,8,0,0,1,2,1165
20,15,9,0,0,1,1,887
20,15,10,0,0,2,0,782
20,16,1,2,0,2,0,1650
20,16,2,2,0,1,2,858
20,16,3,2,0,1,1,764
20,16,4,2,0,2,0,834
20,16,5,2,0,1,2,891
20,16,6,2,0,1,2,965
20,16,7,2,0,1,1,834
20,16,8,2,0,2,0,809
20,16,9,2,0,1,2,957
20,16,10,2,0,2,0,1052
20,17,1,0,0,1,-1,1766
20,17,2,0,0,2,0,801
20,17,3,0,0,1,2,791
20,17,4,0,0,1,0,874
20,17,5,0,0,2,0,792
20,17,6,0,0,1,0,825
20,17,7,0,0,2,0,678
20,17,8,0,0,1,1,598
20,17,9,0,0,2,0,646
20,17,10,0,0,1,0,615
20,18,1,-1,0,1,0,1116
20,18,2,-1,0,1,-1,800
20,18,3,-1,0,2,0,795
20,18,4,-1,0,1,-2,702
20,18,5,-1,0,1,2,663
20,18,6,-1,0,2,0,717
20,18,7,-1,0,1,-2,828
20,18,8,-1,0,1,-1,677
20,18,9,-1,0,1,-1,566
20,18,10,-1,0,1,-1,573
20,19,1,-2,0,1,-2,1089
20,19,2,-2,0,2,0,814
20,19,3,-2,0,1,-5,685
20,19,4,-2,0,1,-1,754
20,19,5,-2,0,1,-1,661
20,19,6,-2,0,2,0,700
20,19,7,-2,0,1,-3,733
20,19,8,-2,0,1,-2,622
20,19,9,-2,0,1,-3,651
20,19,10,-2,0,1,-3,695
20,20,1,-1,0,2,0,15515
20,20,2,-1,0,1,0,757
20,20,3,-1,0,1,-1,700
20,20,4,-1,0,2,0,812
20,20,5,-1,0,1,-2,789
20,20,6,-1,0,1,0,708
20,20,7,-1,0,1,1,701
20,20,8,-1,0,1,-2,750
20,20,9,-1,0,1,0,823
20,20,10,-1,0,1,-1,845
21,1,1,2,0,1,3,4818
21,1,2,2,0,1,3,1017
21,1,3,2,0,1,3,1200
21,1,4,2,0,1,4,1174
21,1,5,2,0,1,3,882
21,1,6,2,0,1,3,817
21,1,7,2,0,1,4,665
21,1,8,2,0,1,5,953
21,1,9,2,0,1,2,1015
21,1,10,2,0,1,2,867
21,2,1,-2,0,1,-1,1266
21,2,2,-2,0,1,-3,1965
21,2,3,-2,0,2,0,719
21,2,4,-2,0,2,0,574
21,2,5,-2,0,2,0,599
21,2,6,-2,0,2,0,600
21,2,7,-2,0,2,0,684
21,2,8,-2,0,1,-1,1628
21,2,9,-2,0,2,0,685
21,2,10,-2,0,2,0,1099
21,3,1,-2,0,1,-4,1746
21,3,2,-2,0,2,0,800
21,3,3,-2,0,1,-2,793
21,3,4,-2,0,1,-2,1596
21,3,5,-2,0,2,0,448
21,3,6,-2,0,2,0,536
21,3,7,-2,0,1,-3,765
21,3,8,-2,0,2,0,749
21,3,9,-2,0,2,0,379
21,3,10,-2,0,2,0,500
21,4,1,-1,0,1,-1,951
21,4,2,-1,0,2,0,878
21,4,3,-1,0,1,0,634
21,4,4,-1,0,1,0,480
21,4,5,-1,0,1,-1,516
21,4,6,-1,0,1,-1,373
21,4,7,-1,0,1,1,347
21,4,8,-1,0,1,0,387
21,4,9,-1,0,1,-1,798
21,4,10,-1,0,2,0,750
21,5,1,1,0,1,-1,1214
21,5,2,1,0,2,0,937
21,5,3,1,0,1,0,451
21,5,4,1,0,1,2,401
21,5,5,1,0,1,0,501
21,5,6,1,0,1,0,484
21,5,7,1,0,1,1,435
21,5,8,1,0,1,1,501
21,5,9,1,0,1,1,384
21,5,10,1,0,1,3,435
21,6,1,-3,0,2,0,2704
21,6,2,-3,0,1,-2,514
21,6,3,-3,0,1,-2,903
21,6,4,-3,0,2,0,416
21,6,5,-3,0,2,0,417
21,6,6,-3,0,2,0,365
21,6,7,-3,0,1,-3,584
21,6,8,-3,0,2,0,367
21,6,9,-3,0,1,-2,416
21,6,10,-3,0,2,0,417
21,7,1,1,0,1,0,968
21,7,2,1,0,1,2,385
21,7,3,1,0,1,2,381
21,7,4,1,0,1,0,400
21,7,5,1,0,1,3,415
21,7,6,1,0,1,1,435
21,7,7,1,0,1,1,433
21,7,8,1,0,1,1,399
21,7,9,1,0,1,1,416
21,7,10,1,0,1,-1,415
21,8,1,2,0,1,3,1150
21,8,2,2,0,1,1,453
21,8,3,2,0,1,3,379
21,8,4,2,0,1,2,386
21,8,5,2,0,1,3,416
21,8,6,2,0,1,3,480
21,8,7,2,0,1,2,558
21,8,8,2,0,1,2,482
21,8,9,2,0,1,2,450
21,8,10,2,0,1,4,441
21,9,1,-1,0,1,-1,1975
21,9,2,-1,0,2,0,409
21,9,3,-1,0,2,0,374
21,9,4,-1,0,2,0,399
21,9,5,-1,0,1,1,567
21,9,6,-1,0,1,-2,391
21,9,7,-1,0,2,0,443
21,9,8,-1,0,1,-4,325
21,9,9,-1,0,2,0,750
21,9,10,-1,0,1,-1,316
21,10,1,0,0,1,1,1132
21,10,2,0,0,1,1,377
21,10,3,0,0,1,0,334
21,10,4,0,0,1,-1,340
21,10,5,0,0,1,0,331
21,10,6,0,0,1,-1,319
21,10,7,0,0,1,0,319
21,10,8,0,0,1,0,381
21,10,9,0,0,1,1,303
21,10,10,0,0,1,0,462
21,11,1,1,0,1,0,965
21,11,2,1,0,1,0,371
21,11,3,1,0,1,0,383
21,11,4,1,0,1,1,440
21,11,5,1,0,1,1,423
21,11,6,1,0,1,0,770
21,11,7,1,0,1,1,413
21,11,8,1,0,1,1,451
21,11,9,1,0,1,0,380
21,11,10,1,0,1,0,580
21,12,1,0,0,1,0,1041
21,12,2,0,0,1,2,495
21,12,3,0,0,1,0,366
21,12,4,0,0,1,1,333
21,12,5,0,0,1,-1,352
21,12,6,0,0,1,0,530
21,12,7,0,0,1,0,333
21,12,8,0,0,1,-1,333
21,12,9,0,0,1,1,449
21,12,10,0,0,1,-1,336
21,13,1,1,0,1,0,681
21,13,2,1,0,1,1,377
21,13,3,1,0,1,2,415
21,13,4,1,0,1,2,417
21,13,5,1,0,1,2,430
21,13,6,1,0,1,0,400
21,13,7,1,0,1,0,433
21,13,8,1,0,1,0,402
21,13,9,1,0,1,1,446
21,13,10,1,0,1,0,431
21,14,1,0,0,1,-1,748
21,14,2,0,0,1,-1,536
21,14,3,0,0,1,0,520
21,14,4,0,0,1,0,382
21,14,5,0,0,1,0,350
21,14,6,0,0,1,0,312
21,14,7,0,0,1,0,481
21,14,8,0,0,1,-1,315
21,14,9,0,0,1,0,601
21,14,10,0,0,1,2,492
21,15,1,-2,0,1,-1,978
21,15,2,-2,0,2,0,719
21,15,3,-2,0,1,-4,967
21,15,4,-2,0,1,-3,774
21,15,5,-2,0,2,0,798
21,15,6,-2,0,2,0,400
21,15,7,-2,0,2,0,393
21,15,8,-2,0,2,0,367
21,15,9,-2,0,2,0,469
21,15,10,-2,0,2,0,416
21,16,1,-1,0,1,-2,908
21,16,2,-1,0,1,0,650
21,16,3,-1,0,1,-1,349
21,16,4,-1,0,1,1,319
21,16,5,-1,0,1,-2,333
21,16,6,-1,0,1,0,364
21,16,7,-1,0,1,-2,317
21,16,8,-1,0,1,-2,796
21,16,9,-1,0,2,0,418
21,16,10,-1,0,2,0,398
21,17,1,-1,0,1,-1,947
21,17,2,-1,0,1,-1,433
21,17,3,-1,0,1,-2,356
21,17,4,-1,0,2,0,518
21,17,5,-1,0,2,0,386
21,17,6,-1,0,2,0,399
21,17,7,-1,0,1,-2,470
21,17,8,-1,0,2,0,383
21,17,9,-1,0,2,0,481
21,17,10,-1,0,2,0,518
21,18,1,0,0,1,0,1105
21,18,2,0,0,1,2,317
21,18,3,0,0,1,0,331
21,18,4,0,0,1,2,338
21,18,5,0,0,1,2,351
21,18,6,0,0,1,1,368
21,18,7,0,0,1,-1,349
21,18,8,0,0,1,0,402
21,18,9,0,0,1,1,364
21,18,10,0,0,1,2,351
21,19,1,2,0,1,1,927
21,19,2,2,0,1,3,349
21,19,3,2,0,1,0,407
21,19,4,2,0,1,1,436
21,19,5,2,0,1,2,382
21,19,6,2,0,1,2,375
21,19,7,2,0,1,-1,413
21,19,8,2,0,1,2,782
21,19,9,2,0,1,3,638
21,19,10,2,0,1,2,439
21,20,1,1,0,1,0,1216
21,20,2,1,0,1,0,655
21,20,3,1,0,1,0,383
21,20,4,1,0,1,1,399
21,20,5,1,0,1,0,367
21,20,6,1,0,1,2,387
21,20,7,1,0,1,1,417
21,20,8,1,0,1,1,350
21,20,9,1,0,1,1,382
21,20,10,1,0,1,1,387
22,1,1,1,0,2,0,901
22,1,2,1,0,2,0,553
22,1,3,1,0,2,0,486
22,1,4,1,0,1,1,643
22,1,5,1,0,1,0,675
22,1,6,1,0,2,0,269
22,1,7,1,0,2,0,415
22,1,8,1,0,2,0,462
22,1,9,1,0,1,-2,635
22,1,10,1,0,2,0,541
22,2,1,0,0,2,0,463
22,2,2,0,0,1,0,587
22,2,3,0,0,2,0,10435
22,2,4,0,0,1,1,545
22,2,5,0,0,1,0,431
22,2,6,0,0,1,-1,566
22,2,7,0,0,2,0,409
22,2,8,0,0,2,0,391
22,2,9,0,0,2,0,424
22,2,10,0,0,2,0,334
22,3,1,0,0,2,0,522
22,3,2,0,0,1,0,503
22,3,3,0,0,1,1,378
22,3,4,0,0,1,-2,384
22,3,5,0,0,1,-1,391
22,3,6,0,0,1,0,277
22,3,7,0,0,2,0,684
22,3,8,0,0,2,0,337
22,3,9,0,0,2,0,1295
22,3,10,0,0,2,0,362
22,4,1,2,0,2,0,510
22,4,2,2,0,1,1,389
22,4,3,2,0,1,3,415
22,4,4,2,0,2,0,423
22,4,5,2,0,2,0,575
22,4,6,2,0,2,0,537
22,4,7,2,0,2,0,392
22,4,8,2,0,1,1,460
22,4,9,2,0,1,3,392
22,4,10,2,0,1,2,399
22,5,1,0,0,1,0,823
22,5,2,0,0,1,-2,648
22,5,3,0,0,1,0,400
22,5,4,0,0,1,0,399
22,5,5,0,0,1,0,425
22,5,6,0,0,1,1,422
22,5,7,0,0,1,-2,389
22,5,8,0,0,1,0,353
22,5,9,0,0,1,0,471
22,5,10,0,0,1,-1,484
22,6,1,-1,0,1,-2,1055
22,6,2,-1,0,2,0,10092
22,6,3,-1,0,2,0,710
22,6,4,-1,0,2,0,520
22,6,5,-1,0,2,0,503
22,6,6,-1,0,2,0,480
22,6,7,-1,0,2,0,480
22,6,8,-1,0,1,-2,568
22,6,9,-1,0,1,-1,458
22,6,10,-1,0,1,0,420
22,7,1,-1,0,1,0,799
22,7,2,-1,0,1,-1,398
22,7,3,-1,0,2,0,682
22,7,4,-1,0,2,0,427
22,7,5,-1,0,2,0,414
22,7,6,-1,0,2,0,518
22,7,7,-1,0,2,0,449
22,7,8,-1,0,2,0,484
22,7,9,-1,0,2,0,428
22,7,10,-1,0,1,-3,805
22,8,1,2,0,1,3,1064
22,8,2,2,0,1,1,453
22,8,3,2,0,1,2,419
22,8,4,2,0,1,0,285
22,8,5,2,0,1,2,368
22,8,6,2,0,1,1,449
22,8,7,2,0,1,4,415
22,8,8,2,0,1,2,444
22,8,9,2,0,1,3,407
22,8,10,2,0,1,2,155
22,9,1,0,0,1,-1,842
22,9,2,0,0,1,0,467
22,9,3,0,0,1,2,412
22,9,4,0,0,1,1,436
22,9,5,0,0,1,2,407
22,9,6,0,0,1,2,462
22,9,7,0,0,1,2,532
22,9,8,0,0,1,-1,394
22,9,9,0,0,1,1,403
22,9,10,0,0,1,1,447
22,10,1,-1,0,2,0,565
22,10,2,-1,0,1,-1,364
22,10,3,-1,0,1,-2,412
22,10,4,-1,0,1,-3,476
22,10,5,-1,0,1,-1,416
22,10,6,-1,0,1,-1,1538
22,10,7,-1,0,1,-3,392
22,10,8,-1,0,1,1,413
22,10,9,-1,0,1,-2,421
22,10,10,-1,0,1,0,396
22,11,1,1,0,2,0,1001
22,11,2,1,0,1,-2,659
22,11,3,1,0,2,0,506
22,11,4,1,0,1,1,655
22,11,5,1,0,1,-2,430
22,11,6,1,0,1,2,441
22,11,7,1,0,1,-1,408
22,11,8,1,0,1,0,413
22,11,9,1,0,1,2,365
22,11,10,1,0,1,1,426
22,12,1,0,0,1,1,565
22,12,2,0,0,1,2,462
22,12,3,0,0,1,1,200
22,12,4,0,0,1,1,539
22,12,5,0,0,1,0,415
22,12,6,0,0,1,1,195
22,12,7,0,0,1,-3,335
22,12,8,0,0,1,2,392
22,12,9,0,0,1,0,452
22,12,10,0,0,1,-1,417
22,13,1,-1,0,1,-1,526
22,13,2,-1,0,1,-2,360
22,13,3,-1,0,1,0,415
22,13,4,-1,0,1,0,528
22,13,5,-1,0,1,0,483
22,13,6,-1,0,1,-1,420
22,13,7,-1,0,1,0,405
22,13,8,-1,0,1,0,435
22,13,9,-1,0,1,0,411
22,13,10,-1,0,1,-1,401
22,14,1,0,0,1,2,508
22,14,2,0,0,1,-1,585
22,14,3,0,0,1,0,473
22,14,4,0,0,1,0,249
22,14,5,0,0,1,-2,444
22,14,6,0,0,1,-1,449
22,14,7,0,0,1,1,475
22,14,8,0,0,1,1,439
22,14,9,0,0,1,1,565
22,14,10,0,0,1,0,796
22,15,1,-1,0,1,0,528
22,15,2,-1,0,1,1,494
22,15,3,-1,0,1,-2,412
22,15,4,-1,0,1,-2,440
22,15,5,-1,0,1,-1,439
22,15,6,-1,0,1,-1,417
22,15,7,-1,0,1,1,456
22,15,8,-1,0,1,-2,415
22,15,9,-1,0,1,0,380
22,15,10,-1,0,1,-1,390
22,16,1,0,0,2,0,998
22,16,2,0,0,2,0,431
22,16,3,0,0,1,-1,449
22,16,4,0,0,1,0,474
22,16,5,0,0,1,-1,432
22,16,6,0,0,1,0,423
22,16,7,0,0,1,0,394
22,16,8,0,0,1,-1,568
22,16,9,0,0,1,-1,452
22,16,10,0,0,1,0,344
22,17,1,-2,0,1,-1,607
22,17,2,-2,0,1,-3,403
22,17,3,-2,0,1,-1,385
22,17,4,-2,0,1,-4,405
22,17,5,-2,0,1,-2,500
22,17,6,-2,0,2,0,793
22,17,7,-2,0,2,0,403
22,17,8,-2,0,2,0,378
22,17,9,-2,0,2,0,406
22,17,10,-2,0,2,0,625
22,18,1,-2,0,2,0,594
22,18,2,-2,0,2,0,438
22,18,3,-2,0,2,0,417
22,18,4,-2,0,1,-3,368
22,18,5,-2,0,1,-2,366
22,18,6,-2,0,2,0,481
22,18,7,-2,0,2,0,405
22,18,8,-2,0,2,0,414
22,18,9,-2,0,2,0,141
22,18,10,-2,0,2,0,496
22,19,1,0,0,1,1,1102
22,19,2,0,0,1,1,393
22,19,3,0,0,1,0,401
22,19,4,0,0,1,1,562
22,19,5,0,0,1,1,370
22,19,6,0,0,1,-2,417
22,19,7,0,0,1,-2,433
22,19,8,0,0,1,1,431
22,19,9,0,0,1,0,495
22,19,10,0,0,1,3,419
22,20,1,-1,0,1,0,484
22,20,2,-1,0,1,-2,486
22,20,3,-1,0,1,-2,405
22,20,4,-1,0,1,1,191
22,20,5,-1,0,1,-2,717
22,20,6,-1,0,1,-1,478
22,20,7,-1,0,1,-1,332
22,20,8,-1,0,1,-1,1363
22,20,9,-1,0,1,0,387
22,20,10,-1,0,1,0,398
23,1,1,0,0,1,0,1866
23,1,2,0,0,1,1,670
23,1,3,0,0,1,-1,609
23,1,4,0,0,1,0,679
23,1,5,0,0,1,1,585
23,1,6,0,0,2,0,1208
23,1,7,0,0,1,0,506
23,1,8,0,0,1,-1,625
23,1,9,0,0,1,0,789
23,1,10,0,0,1,1,521
23,2,1,-1,0,1,-1,905
23,2,2,-1,0,1,1,427
23,2,3,-1,0,1,-1,436
23,2,4,-1,0,1,-1,482
23,2,5,-1,0,2,0,843
23,2,6,-1,0,1,-3,548
23,2,7,-1,0,2,0,704
23,2,8,-1,0,1,1,484
23,2,9,-1,0,1,-2,397
23,2,10,-1,0,1,-2,429
23,3,1,1,0,2,0,774
23,3,2,1,0,1,0,532
23,3,3,1,0,1,-1,442
23,3,4,1,0,1,1,452
23,3,5,1,0,1,1,470
23,3,6,1,0,1,1,3288
23,3,7,1,0,1,1,476
23,3,8,1,0,1,3,454
23,3,9,1,0,1,2,476
23,3,10,1,0,1,0,492
23,4,1,-1,0,1,-1,541
23,4,2,-1,0,1,-4,427
23,4,3,-1,0,1,-3,428
23,4,4,-1,0,1,-2,445
23,4,5,-1,0,1,0,453
23,4,6,-1,0,1,-1,420
23,4,7,-1,0,1,-1,430
23,4,8,-1,0,1,-2,524
23,4,9,-1,0,1,-1,483
23,4,10,-1,0,1,-3,446
23,5,1,-1,0,1,-2,571
23,5,2,-1,0,1,-1,780
23,5,3,-1,0,1,-1,475
23,5,4,-1,0,1,-1,474
23,5,5,-1,0,1,-1,1133
23,5,6,-1,0,1,-1,483
23,5,7,-1,0,2,0,431
23,5,8,-1,0,2,0,390
23,5,9,-1,0,2,0,437
23,5,10,-1,0,2,0,468
23,6,1,1,0,1,-2,1023
23,6,2,1,0,1,2,447
23,6,3,1,0,1,1,389
23,6,4,1,0,1,2,427
23,6,5,1,0,1,1,452
23,6,6,1,0,1,1,420
23,6,7,1,0,1,1,450
23,6,8,1,0,1,3,499
23,6,9,1,0,1,1,467
23,6,10,1,0,1,0,497
23,7,1,2,0,1,1,492
23,7,2,2,0,1,0,442
23,7,3,2,0,1,2,422
23,7,4,2,0,1,2,383
23,7,5,2,0,1,1,437
23,7,6,2,0,1,2,437
23,7,7,2,0,1,3,438
23,7,8,2,0,1,-1,437
23,7,9,2,0,1,1,453
23,7,10,2,0,1,2,499
23,8,1,-1,0,1,-2,454
23,8,2,-1,0,1,-3,443
23,8,3,-1,0,2,0,398
23,8,4,-1,0,2,0,437
23,8,5,-1,0,2,0,438
23,8,6,-1,0,2,0,430
23,8,7,-1,0,2,0,412
23,8,8,-1,0,2,0,874
23,8,9,-1,0,2,0,476
23,8,10,-1,0,2,0,459
23,9,1,1,0,1,2,1930
23,9,2,1,0,1,0,437
23,9,3,1,0,1,1,405
23,9,4,1,0,1,1,423
23,9,5,1,0,1,1,461
23,9,6,1,0,1,0,436
23,9,7,1,0,1,2,437
23,9,8,1,0,1,1,404
23,9,9,1,0,1,0,411
23,9,10,1,0,1,1,412
23,10,1,-1,0,1,0,1006
23,10,2,-1,0,1,0,413
23,10,3,-1,0,1,-1,438
23,10,4,-1,0,1,0,454
23,10,5,-1,0,1,-2,471
23,10,6,-1,0,2,0,382
23,10,7,-1,0,2,0,429
23,10,8,-1,0,2,0,398
23,10,9,-1,0,2,0,407
23,10,10,-1,0,2,0,460
23,11,1,-1,0,1,0,882
23,11,2,-1,0,1,0,443
23,11,3,-1,0,1,-1,376
23,11,4,-1,0,1,-1,416
23,11,5,-1,0,1,-1,1018
23,11,6,-1,0,1,-1,508
23,11,7,-1,0,2,0,366
23,11,8,-1,0,2,0,437
23,11,9,-1,0,2,0,411
23,11,10,-1,0,2,0,466
23,12,1,-3,0,1,-3,390
23,12,2,-3,0,1,-1,463
23,12,3,-3,0,1,-1,467
23,12,4,-3,0,2,0,390
23,12,5,-3,0,2,0,447
23,12,6,-3,0,2,0,470
23,12,7,-3,0,2,0,492
23,12,8,-3,0,2,0,3271
23,12,9,-3,0,2,0,431
23,12,10,-3,0,2,0,592
23,13,1,0,0,1,0,697
23,13,2,0,0,1,0,374
23,13,3,0,0,1,2,344
23,13,4,0,0,1,-1,390
23,13,5,0,0,1,0,407
23,13,6,0,0,1,-1,399
23,13,7,0,0,1,-1,423
23,13,8,0,0,1,0,428
23,13,9,0,0,1,-1,375
23,13,10,0,0,1,1,397
23,14,1,1,0,1,0,539
23,14,2,1,0,1,2,8851
23,14,3,1,0,1,2,388
23,14,4,1,0,1,1,398
23,14,5,1,0,1,0,397
23,14,6,1,0,1,1,444
23,14,7,1,0,1,1,421
23,14,8,1,0,1,2,484
23,14,9,1,0,1,0,437
23,14,10,1,0,1,1,491
23,15,1,-2,0,1,-2,1201
23,15,2,-2,0,1,-4,405
23,15,3,-2,0,2,0,492
23,15,4,-2,0,2,0,451
23,15,5,-2,0,2,0,382
23,15,6,-2,0,2,0,451
23,15,7,-2,0,2,0,357
23,15,8,-2,0,2,0,405
23,15,9,-2,0,2,0,420
23,15,10,-2,0,2,0,415
23,16,1,1,0,1,2,531
23,16,2,1,0,1,1,374
23,16,3,1,0,1,3,384
23,16,4,1,0,1,1,397
23,16,5,1,0,1,1,414
23,16,6,1,0,1,2,421
23,16,7,1,0,1,1,429
23,16,8,1,0,1,1,406
23,16,9,1,0,1,-1,8803
23,16,10,1,0,1,0,375
23,17,1,1,0,1,3,541
23,17,2,1,0,1,2,360
23,17,3,1,0,1,1,352
23,17,4,1,0,1,0,405
23,17,5,1,0,1,1,360
23,17,6,1,0,1,2,486
23,17,7,1,0,1,1,1802
23,17,8,1,0,1,0,389
23,17,9,1,0,1,1,431
23,17,10,1,0,1,2,491
23,18,1,0,0,1,0,571
23,18,2,0,0,1,-1,398
23,18,3,0,0,1,1,406
23,18,4,0,0,1,1,413
23,18,5,0,0,1,0,516
23,18,6,0,0,1,1,405
23,18,7,0,0,1,-1,539
23,18,8,0,0,1,1,420
23,18,9,0,0,1,-1,404
23,18,10,0,0,1,0,406
23,19,1,0,0,1,0,439
23,19,2,0,0,1,-1,368
23,19,3,0,0,1,0,367
23,19,4,0,0,1,0,381
23,19,5,0,0,1,0,398
23,19,6,0,0,1,0,405
23,19,7,0,0,1,2,416
23,19,8,0,0,1,1,430
23,19,9,0,0,1,0,438
23,19,10,0,0,1,0,484
23,20,1,0,0,1,1,532
23,20,2,0,0,1,0,374
23,20,3,0,0,1,0,405
23,20,4,0,0,1,0,466
23,20,5,0,0,1,-1,426
23,20,6,0,0,1,-2,406
23,20,7,0,0,1,-1,462
23,20,8,0,0,1,1,397
23,20,9,0,0,1,0,436
23,20,10,0,0,1,2,428
24,1,1,2,0,1,0,1112
24,1,2,2,0,2,0,752
24,1,3,2,0,2,0,490
24,1,4,2,0,1,1,458
24,1,5,2,0,1,2,509
24,1,6,2,0,1,-1,388
24,1,7,2,0,2,0,356
24,1,8,2,0,1,3,333
24,1,9,2,0,1,1,420
24,1,10,2,0,2,0,355
24,2,1,2,0,1,2,559
24,2,2,2,0,2,0,420
24,2,3,2,0,1,3,420
24,2,4,2,0,2,0,566
24,2,5,2,0,2,0,19964
24,2,6,2,0,1,3,466
24,2,7,2,0,1,3,350
24,2,8,2,0,1,2,404
24,2,9,2,0,2,0,280
24,2,10,2,0,1,4,272
24,3,1,1,0,1,1,546
24,3,2,1,0,1,1,276
24,3,3,1,0,1,0,419
24,3,4,1,0,2,0,476
24,3,5,1,0,1,1,4048
24,3,6,1,0,1,0,304
24,3,7,1,0,1,1,412
24,3,8,1,0,1,1,411
24,3,9,1,0,1,0,395
24,3,10,1,0,2,0,457
24,4,1,2,0,1,2,614
24,4,2,2,0,2,0,356
24,4,3,2,0,1,2,3201
24,4,4,2,0,1,2,427
24,4,5,2,0,2,0,433
24,4,6,2,0,1,2,317
24,4,7,2,0,1,3,320
24,4,8,2,0,1,1,1879
24,4,9,2,0,1,2,528
24,4,10,2,0,2,0,365
24,5,1,-1,0,1,-1,2372
24,5,2,-1,0,2,0,286
24,5,3,-1,0,1,0,279
24,5,4,-1,0,1,-1,326
24,5,5,-1,0,2,0,309
24,5,6,-1,0,2,0,296
24,5,7,-1,0,2,0,272
24,5,8,-1,0,1,-2,357
24,5,9,-1,0,2,0,366
24,5,10,-1,0,2,0,257
24,6,1,0,0,2,0,606
24,6,2,0,0,1,-1,412
24,6,3,0,0,1,0,279
24,6,4,0,0,2,0,309
24,6,5,0,0,2,0,434
24,6,6,0,0,2,0,311
24,6,7,0,0,1,0,326
24,6,8,0,0,2,0,295
24,6,9,0,0,2,0,341
24,6,10,0,0,2,0,358
24,7,1,1,0,2,0,512
24,7,2,1,0,1,1,305
24,7,3,1,0,1,2,357
24,7,4,1,0,1,1,396
24,7,5,1,0,1,1,296
24,7,6,1,0,1,0,264
24,7,7,1,0,1,1,411
24,7,8,1,0,2,0,372
24,7,9,1,0,1,2,279
24,7,10,1,0,1,0,301
24,8,1,-1,0,2,0,551
24,8,2,-1,0,1,-1,425
24,8,3,-1,0,2,0,504
24,8,4,-1,0,2,0,622
24,8,5,-1,0,2,0,598
24,8,6,-1,0,2,0,5463
24,8,7,-1,0,1,-1,452
24,8,8,-1,0,2,0,428
24,8,9,-1,0,1,-1,450
24,8,10,-1,0,2,0,559
24,9,1,0,0,2,0,412
24,9,2,0,0,1,0,310
24,9,3,0,0,2,0,371
24,9,4,0,0,2,0,1167
24,9,5,0,0,1,0,301
24,9,6,0,0,1,1,288
24,9,7,0,0,1,0,334
24,9,8,0,0,2,0,356
24,9,9,0,0,1,-1,363
24,9,10,0,0,1,0,510
24,10,1,-1,0,2,0,613
24,10,2,-1,0,2,0,326
24,10,3,-1,0,1,0,302
24,10,4,-1,0,1,0,365
24,10,5,-1,0,2,0,301
24,10,6,-1,0,2,0,318
24,10,7,-1,0,2,0,342
24,10,8,-1,0,1,0,350
24,10,9,-1,0,1,-3,342
24,10,10,-1,0,1,-1,497
24,11,1,-1,0,2,0,2224
24,11,2,-1,0,1,-1,358
24,11,3,-1,0,1,1,310
24,11,4,-1,0,1,-1,333
24,11,5,-1,0,2,0,396
24,11,6,-1,0,1,1,356
24,11,7,-1,0,1,-1,334
24,11,8,-1,0,1,-1,333
24,11,9,-1,0,2,0,278
24,11,10,-1,0,2,0,358
24,12,1,1,0,2,0,538
24,12,2,1,0,2,0,396
24,12,3,1,0,1,0,450
24,12,4,1,0,1,2,503
24,12,5,1,0,1,0,395
24,12,6,1,0,1,1,388
24,12,7,1,0,2,0,358
24,12,8,1,0,2,0,366
24,12,9,1,0,2,0,1553
24,12,10,1,0,1,1,421
24,13,1,0,0,2,0,530
24,13,2,0,0,2,0,333
24,13,3,0,0,1,1,436
24,13,4,0,0,1,-1,387
24,13,5,0,0,1,-1,350
24,13,6,0,0,2,0,250
24,13,7,0,0,2,0,395
24,13,8,0,0,1,-1,341
24,13,9,0,0,2,0,358
24,13,10,0,0,2,0,272
24,14,1,1,0,2,0,449
24,14,2,1,0,2,0,560
24,14,3,1,0,1,1,458
24,14,4,1,0,1,1,419
24,14,5,1,0,1,2,261
24,14,6,1,0,1,0,263
24,14,7,1,0,2,0,334
24,14,8,1,0,2,0,281
24,14,9,1,0,1,2,309
24,14,10,1,0,1,0,293
24,15,1,0,0,2,0,349
24,15,2,0,0,2,0,403
24,15,3,0,0,1,0,350
24,15,4,0,0,1,0,356
24,15,5,0,0,1,2,466
24,15,6,0,0,1,-1,341
24,15,7,0,0,2,0,341
24,15,8,0,0,2,0,389
24,15,9,0,0,2,0,302
24,15,10,0,0,2,0,444
24,16,1,-2,0,2,0,917
24,16,2,-2,0,2,0,379
24,16,3,-2,0,2,0,334
24,16,4,-2,0,1,0,280
24,16,5,-2,0,1,-2,304
24,16,6,-2,0,1,-3,279
24,16,7,-2,0,1,-1,264
24,16,8,-2,0,1,-2,296
24,16,9,-2,0,2,0,310
24,16,10,-2,0,2,0,303
24,17,1,1,0,2,0,357
24,17,2,1,0,1,2,265
24,17,3,1,0,1,-1,329
24,17,4,1,0,2,0,249
24,17,5,1,0,2,0,255
24,17,6,1,0,2,0,274
24,17,7,1,0,1,-1,288
24,17,8,1,0,2,0,294
24,17,9,1,0,2,0,294
24,17,10,1,0,1,-1,317
24,18,1,0,0,2,0,358
24,18,2,0,0,2,0,296
24,18,3,0,0,1,0,285
24,18,4,0,0,2,0,304
24,18,5,0,0,2,0,280
24,18,6,0,0,1,-1,304
24,18,7,0,0,2,0,328
24,18,8,0,0,1,-1,333
24,18,9,0,0,1,0,552
24,18,10,0,0,1,0,325
24,19,1,0,0,2,0,584
24,19,2,0,0,2,0,319
24,19,3,0,0,2,0,460
24,19,4,0,0,1,1,311
24,19,5,0,0,2,0,296
24,19,6,0,0,1,1,342
24,19,7,0,0,2,0,371
24,19,8,0,0,1,1,519
24,19,9,0,0,2,0,350
24,19,10,0,0,2,0,434
24,20,1,0,0,2,0,481
24,20,2,0,0,1,-2,301
24,20,3,0,0,1,-1,302
24,20,4,0,0,1,-1,341
24,20,5,0,0,1,-1,280
24,20,6,0,0,1,1,285
24,20,7,0,0,1,0,308
24,20,8,0,0,1,3,308
24,20,9,0,0,1,1,389
24,20,10,0,0,1,0,334
25,1,1,1,0,1,2,1683
25,1,2,1,0,1,2,1567
25,1,3,1,0,1,0,7607
25,1,4,1,0,1,0,370
25,1,5,1,0,1,1,408
25,1,6,1,0,1,0,1353
25,1,7,1,0,1,0,1490
25,1,8,1,0,1,-1,1285
25,1,9,1,0,2,0,1776
25,1,10,1,0,1,0,1606
25,2,1,1,0,2,0,716
25,2,2,1,0,1,1,321
25,2,3,1,0,1,-1,381
25,2,4,1,0,1,1,3019
25,2,5,1,0,1,2,1306
25,2,6,1,0,1,2,1214
25,2,7,1,0,1,0,1444
25,2,8,1,0,1,1,400
25,2,9,1,0,1,0,337
25,2,10,1,0,1,2,326
25,3,1,-2,0,1,-2,992
25,3,2,-2,0,1,-1,718
25,3,3,-2,0,2,0,417
25,3,4,-2,0,1,-3,1199
25,3,5,-2,0,2,0,1420
25,3,6,-2,0,2,0,1183
25,3,7,-2,0,2,0,1141
25,3,8,-2,0,2,0,1169
25,3,9,-2,0,2,0,1092
25,3,10,-2,0,2,0,1058
25,4,1,0,0,1,-2,1005
25,4,2,0,0,1,0,1291
25,4,3,0,0,1,1,1149
25,4,4,0,0,1,-1,1272
25,4,5,0,0,2,0,1091
25,4,6,0,0,2,0,1149
25,4,7,0,0,2,0,1224
25,4,8,0,0,2,0,1120
25,4,9,0,0,2,0,1121
25,4,10,0,0,2,0,1071
25,5,1,0,0,1,2,811
25,5,2,0,0,1,0,1090
25,5,3,0,0,1,-1,1312
25,5,4,0,0,1,-1,1183
25,5,5,0,0,1,-1,1055
25,5,6,0,0,1,1,1042
25,5,7,0,0,1,-1,1091
25,5,8,0,0,1,0,1087
25,5,9,0,0,1,1,1043
25,5,10,0,0,1,1,1060
25,6,1,0,0,1,-1,860
25,6,2,0,0,1,0,999
25,6,3,0,0,1,0,1042
25,6,4,0,0,1,1,1028
25,6,5,0,0,1,-1,1069
25,6,6,0,0,1,0,992
25,6,7,0,0,1,-1,1018
25,6,8,0,0,1,-1,1069
25,6,9,0,0,1,-2,979
25,6,10,0,0,1,-2,1036
25,7,1,1,0,1,3,768
25,7,2,1,0,1,2,1149
25,7,3,1,0,1,1,947
25,7,4,1,0,1,2,965
25,7,5,1,0,1,1,1036
25,7,6,1,0,1,1,988
25,7,7,1,0,1,0,1466
25,7,8,1,0,1,1,1071
25,7,9,1,0,1,0,1026
25,7,10,1,0,1,2,1087
25,8,1,0,0,1,0,885
25,8,2,0,0,1,0,1606
25,8,3,0,0,1,1,1599
25,8,4,0,0,1,-2,1052
25,8,5,0,0,1,1,986
25,8,6,0,0,1,1,1005
25,8,7,0,0,1,-2,1112
25,8,8,0,0,1,0,1057
25,8,9,0,0,1,0,1044
25,8,10,0,0,1,1,947
25,9,1,1,0,1,2,1041
25,9,2,1,0,1,1,1039
25,9,3,1,0,1,1,1086
25,9,4,1,0,1,2,1032
25,9,5,1,0,1,1,1132
25,9,6,1,0,1,1,1104
25,9,7,1,0,1,0,1058
25,9,8,1,0,1,2,1004
25,9,9,1,0,1,0,1017
25,9,10,1,0,1,1,1080
25,10,1,-1,0,1,-3,1333
25,10,2,-1,0,2,0,1075
25,10,3,-1,0,1,-3,1240
25,10,4,-1,0,1,0,519
25,10,5,-1,0,2,0,1919
25,10,6,-1,0,2,0,1071
25,10,7,-1,0,2,0,1021
25,10,8,-1,0,2,0,1005
25,10,9,-1,0,2,0,1005
25,10,10,-1,0,2,0,1004
25,11,1,0,0,1,0,808
25,11,2,0,0,1,-1,1159
25,11,3,0,0,1,1,1068
25,11,4,0,0,1,1,1026
25,11,5,0,0,1,1,975
25,11,6,0,0,1,2,891
25,11,7,0,0,1,0,983
25,11,8,0,0,1,-1,948
25,11,9,0,0,1,-1,1007
25,11,10,0,0,1,-2,934
25,12,1,2,0,1,2,542
25,12,2,2,0,1,2,1054
25,12,3,2,0,1,2,1753
25,12,4,2,0,1,1,1009
25,12,5,2,0,1,2,878
25,12,6,2,0,1,3,932
25,12,7,2,0,1,2,321
25,12,8,2,0,1,1,930
25,12,9,2,0,1,3,923
25,12,10,2,0,1,0,869
25,13,1,0,0,1,-1,739
25,13,2,0,0,1,0,1168
25,13,3,0,0,2,0,2602
25,13,4,0,0,1,0,283
25,13,5,0,0,1,1,1094
25,13,6,0,0,1,1,433
25,13,7,0,0,1,1,486
25,13,8,0,0,1,2,499
25,13,9,0,0,1,0,469
25,13,10,0,0,1,1,430
25,14,1,1,0,1,2,740
25,14,2,1,0,1,1,889
25,14,3,1,0,1,1,891
25,14,4,1,0,1,1,873
25,14,5,1,0,1,1,873
25,14,6,1,0,1,3,850
25,14,7,1,0,1,3,847
25,14,8,1,0,1,-1,926
25,14,9,1,0,1,0,915
25,14,10,1,0,1,1,908
25,15,1,-2,0,1,-2,763
25,15,2,-2,0,1,-2,1157
25,15,3,-2,0,2,0,825
25,15,4,-2,0,2,0,1053
25,15,5,-2,0,2,0,488
25,15,6,-2,0,2,0,402
25,15,7,-2,0,2,0,514
25,15,8,-2,0,2,0,422
25,15,9,-2,0,2,0,407
25,15,10,-2,0,2,0,419
25,16,1,0,0,1,-1,1492
25,16,2,0,0,1,-1,1004
25,16,3,0,0,1,0,924
25,16,4,0,0,1,0,1246
25,16,5,0,0,1,-1,390
25,16,6,0,0,1,1,591
25,16,7,0,0,1,-1,708
25,16,8,0,0,2,0,2680
25,16,9,0,0,2,0,965
25,16,10,0,0,2,0,544
25,17,1,0,0,1,-2,759
25,17,2,0,0,1,-1,1227
25,17,3,0,0,1,-2,3100
25,17,4,0,0,2,0,436
25,17,5,0,0,2,0,487
25,17,6,0,0,2,0,439
25,17,7,0,0,2,0,441
25,17,8,0,0,2,0,493
25,17,9,0,0,2,0,432
25,17,10,0,0,2,0,390
25,18,1,0,0,1,1,722
25,18,2,0,0,1,1,1109
25,18,3,0,0,1,-3,943
25,18,4,0,0,1,0,886
25,18,5,0,0,1,1,921
25,18,6,0,0,1,0,351
25,18,7,0,0,1,0,322
25,18,8,0,0,1,1,337
25,18,9,0,0,1,-1,321
25,18,10,0,0,1,-1,320
25,19,1,1,0,1,2,409
25,19,2,1,0,1,1,320
25,19,3,1,0,1,1,300
25,19,4,1,0,1,1,1040
25,19,5,1,0,1,1,815
25,19,6,1,0,1,3,838
25,19,7,1,0,1,1,772
25,19,8,1,0,1,2,793
25,19,9,1,0,1,0,719
25,19,10,1,0,1,0,446
25,20,1,1,0,1,0,714
25,20,2,1,0,1,2,393
25,20,3,1,0,1,2,325
25,20,4,1,0,1,2,337
25,20,5,1,0,1,0,500
25,20,6,1,0,1,0,467
25,20,7,1,0,1,2,408
25,20,8,1,0,1,3,399
25,20,9,1,0,1,2,562
25,20,10,1,0,1,4,510
26,1,1,0,0,2,0,1008
26,1,2,0,0,1,0,518
26,1,3,0,0,1,2,592
26,1,4,0,0,2,0,527
26,1,5,0,0,2,0,565
26,1,6,0,0,1,-1,407
26,1,7,0,0,2,0,503
26,1,8,0,0,2,0,638
26,1,9,0,0,1,1,408
26,1,10,0,0,1,2,438
26,2,1,0,0,1,0,681
26,2,2,0,0,2,0,342
26,2,3,0,0,2,0,374
26,2,4,0,0,1,1,374
26,2,5,0,0,1,0,327
26,2,6,0,0,1,-2,422
26,2,7,0,0,2,0,528
26,2,8,0,0,2,0,449
26,2,9,0,0,1,1,358
26,2,10,0,0,1,-1,384
26,3,1,0,0,2,0,8383
26,3,2,0,0,1,0,399
26,3,3,0,0,1,1,431
26,3,4,0,0,1,0,471
26,3,5,0,0,1,-2,382
26,3,6,0,0,2,0,431
