subject,block,trial,mu1,mu2,choice,reward,RT
1,1,1,-1,-2,1,0,1655
1,1,2,-1,-2,2,-4,652
1,1,3,-1,-2,1,-1,479
1,1,4,-1,-2,1,-2,839
1,1,5,-1,-2,2,-1,424
1,1,6,-1,-2,1,0,426
1,1,7,-1,-2,1,-3,407
1,1,8,-1,-2,2,-1,686
1,1,9,-1,-2,1,-1,391
1,1,10,-1,-2,1,-1,350
1,2,1,0,-10,1,0,670
1,2,2,0,-10,2,-8,375
1,2,3,0,-10,1,-2,367
1,2,4,0,-10,1,0,415
1,2,5,0,-10,1,0,407
1,2,6,0,-10,1,-1,368
1,2,7,0,-10,2,-11,471
1,2,8,0,-10,1,1,335
1,2,9,0,-10,1,0,351
1,2,10,0,-10,2,-10,367
1,3,1,-5,3,1,-5,530
1,3,2,-5,3,2,2,302
1,3,3,-5,3,2,2,375
1,3,4,-5,3,2,3,360
1,3,5,-5,3,2,2,319
1,3,6,-5,3,2,1,335
1,3,7,-5,3,2,2,385
1,3,8,-5,3,2,4,350
1,3,9,-5,3,2,3,367
1,3,10,-5,3,2,4,391
1,4,1,-2,1,2,1,683
1,4,2,-2,1,2,3,319
1,4,3,-2,1,1,-2,502
1,4,4,-2,1,2,3,543
1,4,5,-2,1,2,1,327
1,4,6,-2,1,2,1,342
1,4,7,-2,1,2,0,342
1,4,8,-2,1,2,1,383
1,4,9,-2,1,2,2,424
1,4,10,-2,1,2,1,390
1,5,1,-2,-11,2,-11,504
1,5,2,-2,-11,1,-2,415
1,5,3,-2,-11,1,-3,596
1,5,4,-2,-11,1,-2,485
1,5,5,-2,-11,1,-2,493
1,5,6,-2,-11,1,-3,399
1,5,7,-2,-11,1,-1,392
1,5,8,-2,-11,1,-6,424
1,5,9,-2,-11,2,-10,503
1,5,10,-2,-11,1,-3,351
1,6,1,-5,-9,1,-6,656
1,6,2,-5,-9,2,-9,365
1,6,3,-5,-9,1,-5,519
1,6,4,-5,-9,1,-5,342
1,6,5,-5,-9,1,-5,319
1,6,6,-5,-9,1,-4,423
1,6,7,-5,-9,1,-5,399
1,6,8,-5,-9,1,-6,405
1,6,9,-5,-9,1,-4,359
1,6,10,-5,-9,1,-3,375
1,7,1,1,0,1,1,774
1,7,2,1,0,1,-1,366
1,7,3,1,0,2,0,340
1,7,4,1,0,2,0,335
1,7,5,1,0,2,-1,439
1,7,6,1,0,1,-1,368
1,7,7,1,0,1,3,463
1,7,8,1,0,1,0,343
1,7,9,1,0,1,2,367
1,7,10,1,0,1,-1,359
1,8,1,1,-7,1,1,464
1,8,2,1,-7,1,1,396
1,8,3,1,-7,1,-1,334
1,8,4,1,-7,1,4,351
1,8,5,1,-7,1,2,383
1,8,6,1,-7,1,-1,360
1,8,7,1,-7,1,0,343
1,8,8,1,-7,1,0,455
1,8,9,1,-7,1,2,415
1,8,10,1,-7,1,1,415
1,9,1,9,-4,1,8,474
1,9,2,9,-4,1,8,407
1,9,3,9,-4,1,8,510
1,9,4,9,-4,2,-4,320
1,9,5,9,-4,1,7,351
1,9,6,9,-4,1,11,352
1,9,7,9,-4,1,6,376
1,9,8,9,-4,1,8,535
1,9,9,9,-4,1,9,423
1,9,10,9,-4,1,10,615
1,10,1,-8,-8,1,-9,961
1,10,2,-8,-8,2,-10,423
1,10,3,-8,-8,1,-8,382
1,10,4,-8,-8,1,-9,318
1,10,5,-8,-8,1,-9,367
1,10,6,-8,-8,1,-8,511
1,10,7,-8,-8,1,-9,383
1,10,8,-8,-8,1,-9,359
1,10,9,-8,-8,1,-9,342
1,10,10,-8,-8,1,-7,366
1,11,1,11,16,1,10,554
1,11,2,11,16,1,10,397
1,11,3,11,16,1,12,359
1,11,4,11,16,1,11,377
1,11,5,11,16,2,17,359
1,11,6,11,16,2,16,406
1,11,7,11,16,2,18,310
1,11,8,11,16,2,16,367
1,11,9,11,16,2,17,352
1,11,10,11,16,2,16,336
1,12,1,-11,4,2,5,734
1,12,2,-11,4,1,-12,343
1,12,3,-11,4,2,4,343
1,12,4,-11,4,2,4,383
1,12,5,-11,4,2,3,375
1,12,6,-11,4,2,5,358
1,12,7,-11,4,2,4,359
1,12,8,-11,4,2,5,351
1,12,9,-11,4,2,4,352
1,12,10,-11,4,2,3,355
1,13,1,-3,4,2,5,544
1,13,2,-3,4,1,-2,342
1,13,3,-3,4,2,3,327
1,13,4,-3,4,2,5,351
1,13,5,-3,4,2,2,383
1,13,6,-3,4,2,5,383
1,13,7,-3,4,2,4,406
1,13,8,-3,4,2,3,335
1,13,9,-3,4,2,4,367
1,13,10,-3,4,2,4,367
1,14,1,-6,-6,2,-5,543
1,14,2,-6,-6,1,-6,344
1,14,3,-6,-6,2,-5,375
1,14,4,-6,-6,1,-7,356
1,14,5,-6,-6,1,-6,374
1,14,6,-6,-6,1,-4,374
1,14,7,-6,-6,2,-7,503
1,14,8,-6,-6,1,-6,431
1,14,9,-6,-6,1,-7,383
1,14,10,-6,-6,1,-7,367
1,15,1,-16,-9,1,-19,743
1,15,2,-16,-9,2,-9,327
1,15,3,-16,-9,2,-8,325
1,15,4,-16,-9,2,-8,334
1,15,5,-16,-9,2,-8,319
1,15,6,-16,-9,2,-10,488
1,15,7,-16,-9,1,-16,688
1,15,8,-16,-9,2,-9,335
1,15,9,-16,-9,2,-9,358
1,15,10,-16,-9,2,-8,904
1,16,1,-7,8,2,9,454
1,16,2,-7,8,1,-8,390
1,16,3,-7,8,2,8,319
1,16,4,-7,8,2,10,351
1,16,5,-7,8,2,9,359
1,16,6,-7,8,2,9,320
1,16,7,-7,8,2,9,369
1,16,8,-7,8,2,8,382
1,16,9,-7,8,2,7,383
1,16,10,-7,8,2,7,423
1,17,1,15,2,2,2,520
1,17,2,15,2,1,16,334
1,17,3,15,2,1,15,343
1,17,4,15,2,1,15,335
1,17,5,15,2,1,16,344
1,17,6,15,2,1,16,335
1,17,7,15,2,1,14,352
1,17,8,15,2,1,15,383
1,17,9,15,2,1,15,343
1,17,10,15,2,1,14,327
1,18,1,-6,-4,2,-3,491
1,18,2,-6,-4,1,-5,512
1,18,3,-6,-4,1,-6,399
1,18,4,-6,-4,2,-6,327
1,18,5,-6,-4,1,-7,406
1,18,6,-6,-4,2,-2,328
1,18,7,-6,-4,1,-6,343
1,18,8,-6,-4,2,-4,344
1,18,9,-6,-4,1,-6,377
1,18,10,-6,-4,2,-2,327
1,19,1,2,18,2,18,484
1,19,2,2,18,1,1,359
1,19,3,2,18,2,18,343
1,19,4,2,18,2,18,311
1,19,5,2,18,2,17,343
1,19,6,2,18,2,18,351
1,19,7,2,18,2,18,359
1,19,8,2,18,2,18,351
1,19,9,2,18,2,18,367
1,19,10,2,18,2,19,360
1,20,1,3,3,2,4,553
1,20,2,3,3,1,1,487
1,20,3,3,3,2,3,375
1,20,4,3,3,2,3,343
1,20,5,3,3,2,5,350
1,20,6,3,3,2,4,327
1,20,7,3,3,2,2,335
1,20,8,3,3,2,4,439
1,20,9,3,3,2,3,375
1,20,10,3,3,2,4,357
2,1,1,-2,-7,1,-3,1309
2,1,2,-2,-7,2,-8,698
2,1,3,-2,-7,1,-3,606
2,1,4,-2,-7,2,-7,507
2,1,5,-2,-7,1,-2,492
2,1,6,-2,-7,1,-2,469
2,1,7,-2,-7,1,-1,375
2,1,8,-2,-7,1,-3,358
2,1,9,-2,-7,2,-7,367
2,1,10,-2,-7,1,-2,329
2,2,1,8,8,2,8,901
2,2,2,8,8,1,7,520
2,2,3,8,8,2,9,390
2,2,4,8,8,2,8,496
2,2,5,8,8,2,6,383
2,2,6,8,8,2,8,369
2,2,7,8,8,2,9,383
2,2,8,8,8,2,7,376
2,2,9,8,8,2,9,557
2,2,10,8,8,2,8,366
2,3,1,11,-5,2,-5,1284
2,3,2,11,-5,1,11,438
2,3,3,11,-5,1,11,445
2,3,4,11,-5,1,11,535
2,3,5,11,-5,1,11,689
2,3,6,11,-5,1,11,566
2,3,7,11,-5,1,13,538
2,3,8,11,-5,1,13,543
2,3,9,11,-5,1,10,509
2,3,10,11,-5,1,11,600
2,4,1,-5,6,2,6,1517
2,4,2,-5,6,1,-5,539
2,4,3,-5,6,2,8,412
2,4,4,-5,6,2,6,514
2,4,5,-5,6,2,6,466
2,4,6,-5,6,2,6,448
2,4,7,-5,6,2,7,430
2,4,8,-5,6,2,6,454
2,4,9,-5,6,2,5,412
2,4,10,-5,6,2,4,412
2,5,1,-3,16,2,15,850
2,5,2,-3,16,1,-2,505
2,5,3,-3,16,2,15,349
2,5,4,-3,16,2,15,399
2,5,5,-3,16,2,16,342
2,5,6,-3,16,2,17,335
2,5,7,-3,16,2,17,484
2,5,8,-3,16,2,17,595
2,5,9,-3,16,2,16,818
2,5,10,-3,16,2,16,1322
2,6,1,-15,6,2,6,2294
2,6,2,-15,6,1,-15,504
2,6,3,-15,6,2,6,343
2,6,4,-15,6,2,8,313
2,6,5,-15,6,2,6,340
2,6,6,-15,6,2,6,404
2,6,7,-15,6,2,5,353
2,6,8,-15,6,2,7,350
2,6,9,-15,6,2,6,377
2,6,10,-15,6,2,7,349
2,7,1,-1,8,2,7,625
2,7,2,-1,8,1,-2,715
2,7,3,-1,8,2,8,415
2,7,4,-1,8,2,8,336
2,7,5,-1,8,2,9,319
2,7,6,-1,8,2,8,304
2,7,7,-1,8,2,7,451
2,7,8,-1,8,2,10,341
2,7,9,-1,8,2,8,364
2,7,10,-1,8,2,9,404
2,8,1,5,-14,2,-14,1108
2,8,2,5,-14,1,4,382
2,8,3,5,-14,1,4,350
2,8,4,5,-14,1,4,304
2,8,5,5,-14,1,5,365
2,8,6,5,-14,1,5,405
2,8,7,5,-14,1,4,439
2,8,8,5,-14,1,7,647
2,8,9,5,-14,1,6,1016
2,8,10,5,-14,1,5,498
2,9,1,15,0,1,14,562
2,9,2,15,0,1,13,391
2,9,3,15,0,1,14,488
2,9,4,15,0,1,14,306
2,9,5,15,0,1,15,359
2,9,6,15,0,1,17,567
2,9,7,15,0,1,16,491
2,9,8,15,0,1,14,388
2,9,9,15,0,1,16,427
2,9,10,15,0,1,16,799
2,10,1,12,6,2,6,1019
2,10,2,12,6,1,14,356
2,10,3,12,6,1,13,356
2,10,4,12,6,1,10,429
2,10,5,12,6,1,12,332
2,10,6,12,6,1,12,312
2,10,7,12,6,1,13,338
2,10,8,12,6,1,13,398
2,10,9,12,6,1,11,412
2,10,10,12,6,1,13,426
2,11,1,6,5,1,6,624
2,11,2,6,5,2,4,351
2,11,3,6,5,1,6,413
2,11,4,6,5,2,5,349
2,11,5,6,5,2,6,374
2,11,6,6,5,2,5,335
2,11,7,6,5,1,5,333
2,11,8,6,5,1,7,423
2,11,9,6,5,1,6,358
2,11,10,6,5,1,6,350
2,12,1,-7,-4,1,-7,852
2,12,2,-7,-4,2,-3,382
2,12,3,-7,-4,2,-3,367
2,12,4,-7,-4,1,-6,438
2,12,5,-7,-4,2,-4,377
2,12,6,-7,-4,2,-6,399
2,12,7,-7,-4,1,-5,398
2,12,8,-7,-4,2,-3,344
2,12,9,-7,-4,2,-4,374
2,12,10,-7,-4,2,-4,405
2,13,1,12,2,2,0,586
2,13,2,12,2,1,13,434
2,13,3,12,2,1,13,423
2,13,4,12,2,1,11,382
2,13,5,12,2,1,12,353
2,13,6,12,2,1,12,383
2,13,7,12,2,1,11,390
2,13,8,12,2,1,11,517
2,13,9,12,2,1,11,539
2,13,10,12,2,1,14,362
2,14,1,6,2,1,7,6542
2,14,2,6,2,2,3,358
2,14,3,6,2,1,5,280
2,14,4,6,2,2,3,326
2,14,5,6,2,1,6,337
2,14,6,6,2,1,7,361
2,14,7,6,2,1,4,836
2,14,8,6,2,1,4,392
2,14,9,6,2,1,8,2157
2,14,10,6,2,1,5,387
2,15,1,6,-9,2,-10,1880
2,15,2,6,-9,1,5,396
2,15,3,6,-9,1,7,319
2,15,4,6,-9,1,6,388
2,15,5,6,-9,1,4,326
2,15,6,6,-9,1,7,325
2,15,7,6,-9,1,6,367
2,15,8,6,-9,1,6,383
2,15,9,6,-9,1,7,366
2,15,10,6,-9,1,6,406
2,16,1,5,-3,1,5,704
2,16,2,5,-3,2,-4,364
2,16,3,5,-3,1,7,1951
2,16,4,5,-3,1,6,367
2,16,5,5,-3,1,6,352
2,16,6,5,-3,1,5,336
2,16,7,5,-3,1,8,374
2,16,8,5,-3,1,4,413
2,16,9,5,-3,1,5,318
2,16,10,5,-3,1,7,356
2,17,1,-2,11,2,10,962
2,17,2,-2,11,1,-3,459
2,17,3,-2,11,2,10,320
2,17,4,-2,11,2,11,270
2,17,5,-2,11,2,12,326
2,17,6,-2,11,2,10,287
2,17,7,-2,11,2,10,340
2,17,8,-2,11,2,11,350
2,17,9,-2,11,2,9,282
2,17,10,-2,11,2,11,358
2,18,1,-1,-9,2,-9,671
2,18,2,-1,-9,1,-2,374
2,18,3,-1,-9,1,0,397
2,18,4,-1,-9,1,-2,335
2,18,5,-1,-9,1,-2,376
2,18,6,-1,-9,1,0,348
2,18,7,-1,-9,1,-1,349
2,18,8,-1,-9,2,-8,385
2,18,9,-1,-9,1,-1,356
2,18,10,-1,-9,1,1,374
2,19,1,18,-6,1,19,2858
2,19,2,18,-6,1,19,366
2,19,3,18,-6,1,18,337
2,19,4,18,-6,1,15,323
2,19,5,18,-6,1,17,416
2,19,6,18,-6,1,18,380
2,19,7,18,-6,1,17,385
2,19,8,18,-6,1,18,384
2,19,9,18,-6,1,18,352
2,19,10,18,-6,1,19,382
2,20,1,15,-3,1,16,658
2,20,2,15,-3,1,15,516
2,20,3,15,-3,1,15,312
2,20,4,15,-3,1,15,318
2,20,5,15,-3,1,15,328
2,20,6,15,-3,1,15,329
2,20,7,15,-3,1,14,327
2,20,8,15,-3,1,17,343
2,20,9,15,-3,1,16,351
2,20,10,15,-3,1,15,337
3,1,1,10,9,1,9,1559
3,1,2,10,9,2,10,816
3,1,3,10,9,2,9,861
3,1,4,10,9,1,9,578
3,1,5,10,9,2,10,473
3,1,6,10,9,2,9,444
3,1,7,10,9,1,8,438
3,1,8,10,9,2,10,357
3,1,9,10,9,1,9,383
3,1,10,10,9,2,10,387
3,2,1,-4,6,1,-5,861
3,2,2,-4,6,2,4,372
3,2,3,-4,6,1,-5,516
3,2,4,-4,6,2,8,323
3,2,5,-4,6,2,5,336
3,2,6,-4,6,1,-6,333
3,2,7,-4,6,2,8,313
3,2,8,-4,6,2,4,333
3,2,9,-4,6,2,6,341
3,2,10,-4,6,2,5,316
3,3,1,4,-1,2,-2,468
3,3,2,4,-1,1,4,343
3,3,3,4,-1,1,5,259
3,3,4,4,-1,1,3,292
3,3,5,4,-1,1,3,322
3,3,6,4,-1,1,3,318
3,3,7,4,-1,1,5,336
3,3,8,4,-1,1,4,363
3,3,9,4,-1,1,5,415
3,3,10,4,-1,1,4,355
3,4,1,-13,8,1,-13,422
3,4,2,-13,8,2,8,384
3,4,3,-13,8,2,8,464
3,4,4,-13,8,2,8,254
3,4,5,-13,8,2,7,209
3,4,6,-13,8,2,8,229
3,4,7,-13,8,2,9,226
3,4,8,-13,8,2,7,283
3,4,9,-13,8,2,6,235
3,4,10,-13,8,2,9,418
3,5,1,-2,6,1,-2,370
3,5,2,-2,6,2,4,258
3,5,3,-2,6,2,7,233
3,5,4,-2,6,2,6,241
3,5,5,-2,6,2,7,239
3,5,6,-2,6,2,7,277
3,5,7,-2,6,2,7,379
3,5,8,-2,6,2,6,294
3,5,9,-2,6,2,6,257
3,5,10,-2,6,2,5,316
3,6,1,-2,-2,2,-1,351
3,6,2,-2,-2,1,-2,265
3,6,3,-2,-2,2,-3,260
3,6,4,-2,-2,1,0,388
3,6,5,-2,-2,1,-2,283
3,6,6,-2,-2,2,-5,316
3,6,7,-2,-2,1,-4,297
3,6,8,-2,-2,2,-3,319
3,6,9,-2,-2,1,-1,321
3,6,10,-2,-2,2,-1,358
3,7,1,1,8,1,0,351
3,7,2,1,8,2,9,263
3,7,3,1,8,2,8,312
3,7,4,1,8,2,7,334
3,7,5,1,8,2,8,250
3,7,6,1,8,2,9,255
3,7,7,1,8,2,6,277
3,7,8,1,8,2,9,226
3,7,9,1,8,2,9,244
3,7,10,1,8,2,7,277
3,8,1,-2,-7,2,-6,556
3,8,2,-2,-7,1,-2,287
3,8,3,-2,-7,1,-4,299
3,8,4,-2,-7,2,-6,290
3,8,5,-2,-7,1,-1,285
3,8,6,-2,-7,2,-6,291
3,8,7,-2,-7,1,-3,274
3,8,8,-2,-7,1,-2,269
3,8,9,-2,-7,1,-3,235
3,8,10,-2,-7,1,-2,275
3,9,1,-6,2,2,3,589
3,9,2,-6,2,1,-6,300
3,9,3,-6,2,2,3,266
3,9,4,-6,2,2,1,225
3,9,5,-6,2,2,2,223
3,9,6,-6,2,2,2,226
3,9,7,-6,2,2,3,230
3,9,8,-6,2,2,4,218
3,9,9,-6,2,2,3,266
3,9,10,-6,2,2,3,266
3,10,1,6,-1,1,7,408
3,10,2,6,-1,2,0,263
3,10,3,6,-1,1,7,285
3,10,4,6,-1,1,6,222
3,10,5,6,-1,1,6,250
3,10,6,6,-1,1,7,318
3,10,7,6,-1,1,5,299
3,10,8,6,-1,1,8,251
3,10,9,6,-1,1,5,262
3,10,10,6,-1,1,5,292
3,11,1,-4,5,2,6,398
3,11,2,-4,5,1,-4,282
3,11,3,-4,5,2,5,290
3,11,4,-4,5,2,4,207
3,11,5,-4,5,2,5,223
3,11,6,-4,5,2,5,224
3,11,7,-4,5,2,6,204
3,11,8,-4,5,2,5,272
3,11,9,-4,5,2,7,209
3,11,10,-4,5,2,5,240
3,12,1,2,-10,2,-8,387
3,12,2,2,-10,1,2,266
3,12,3,2,-10,1,1,245
3,12,4,2,-10,1,2,251
3,12,5,2,-10,1,1,262
3,12,6,2,-10,1,4,228
3,12,7,2,-10,1,2,274
3,12,8,2,-10,1,-1,288
3,12,9,2,-10,1,4,300
3,12,10,2,-10,1,1,568
3,13,1,0,7,1,-1,463
3,13,2,0,7,2,7,261
3,13,3,0,7,2,9,250
3,13,4,0,7,2,8,223
3,13,5,0,7,2,7,226
3,13,6,0,7,2,6,229
3,13,7,0,7,2,7,271
3,13,8,0,7,2,7,284
3,13,9,0,7,2,6,247
3,13,10,0,7,2,8,250
3,14,1,3,0,2,1,507
3,14,2,3,0,1,3,279
3,14,3,3,0,1,4,243
3,14,4,3,0,1,3,201
3,14,5,3,0,1,4,268
3,14,6,3,0,1,3,237
3,14,7,3,0,1,3,236
3,14,8,3,0,1,3,242
3,14,9,3,0,1,4,251
3,14,10,3,0,1,4,248
3,15,1,5,3,2,3,365
3,15,2,5,3,1,6,253
3,15,3,5,3,1,6,306
3,15,4,5,3,1,6,248
3,15,5,5,3,1,4,225
3,15,6,5,3,1,4,258
3,15,7,5,3,1,6,237
3,15,8,5,3,1,5,266
3,15,9,5,3,1,7,273
3,15,10,5,3,1,4,360
3,16,1,4,4,2,5,615
3,16,2,4,4,1,3,237
3,16,3,4,4,2,5,281
3,16,4,4,4,2,3,203
3,16,5,4,4,2,4,239
3,16,6,4,4,2,5,216
3,16,7,4,4,2,3,246
3,16,8,4,4,2,3,266
3,16,9,4,4,2,4,245
3,16,10,4,4,2,5,275
3,17,1,6,-3,2,-4,417
3,17,2,6,-3,1,5,255
3,17,3,6,-3,1,6,264
3,17,4,6,-3,1,6,245
3,17,5,6,-3,1,7,255
3,17,6,6,-3,1,5,275
3,17,7,6,-3,1,5,264
3,17,8,6,-3,1,7,287
3,17,9,6,-3,1,5,261
3,17,10,6,-3,1,5,241
3,18,1,-8,-3,1,-9,384
3,18,2,-8,-3,2,0,233
3,18,3,-8,-3,2,-2,225
3,18,4,-8,-3,2,-4,214
3,18,5,-8,-3,2,-4,190
3,18,6,-8,-3,1,-8,256
3,18,7,-8,-3,2,-5,234
3,18,8,-8,-3,2,-5,209
3,18,9,-8,-3,2,-3,220
3,18,10,-8,-3,2,-5,244
3,19,1,4,-4,2,-3,573
3,19,2,4,-4,1,4,231
3,19,3,4,-4,1,5,238
3,19,4,4,-4,1,4,255
3,19,5,4,-4,1,6,267
3,19,6,4,-4,1,4,235
3,19,7,4,-4,1,2,226
3,19,8,4,-4,1,3,261
3,19,9,4,-4,1,3,256
3,19,10,4,-4,1,5,260
3,20,1,5,-6,2,-6,380
3,20,2,5,-6,1,5,254
3,20,3,5,-6,1,4,230
3,20,4,5,-6,1,4,224
3,20,5,5,-6,1,5,244
3,20,6,5,-6,1,4,233
3,20,7,5,-6,1,6,254
3,20,8,5,-6,1,5,245
3,20,9,5,-6,1,7,252
3,20,10,5,-6,1,4,237
4,1,1,3,4,1,4,1135
4,1,2,3,4,1,2,742
4,1,3,3,4,2,4,609
4,1,4,3,4,2,3,412
4,1,5,3,4,2,3,541
4,1,6,3,4,2,5,431
4,1,7,3,4,2,3,482
4,1,8,3,4,1,3,393
4,1,9,3,4,2,4,391
4,1,10,3,4,2,3,391
4,2,1,-2,-1,1,-2,611
4,2,2,-2,-1,2,-1,350
4,2,3,-2,-1,2,-2,544
4,2,4,-2,-1,2,0,403
4,2,5,-2,-1,2,-1,550
4,2,6,-2,-1,1,-3,1066
4,2,7,-2,-1,1,-1,367
4,2,8,-2,-1,1,-1,485
4,2,9,-2,-1,1,-1,520
4,2,10,-2,-1,2,-1,760
4,3,1,7,8,1,8,1119
4,3,2,7,8,1,5,377
4,3,3,7,8,1,8,478
4,3,4,7,8,1,8,446
4,3,5,7,8,1,6,470
4,3,6,7,8,2,8,607
4,3,7,7,8,2,8,697
4,3,8,7,8,2,8,447
4,3,9,7,8,2,7,415
4,3,10,7,8,2,8,399
4,4,1,-6,5,2,4,479
4,4,2,-6,5,1,-6,407
4,4,3,-6,5,2,7,489
4,4,4,-6,5,2,5,435
4,4,5,-6,5,2,5,788
4,4,6,-6,5,2,4,385
4,4,7,-6,5,2,4,535
4,4,8,-6,5,2,4,444
4,4,9,-6,5,2,6,412
4,4,10,-6,5,2,5,423
4,5,1,-5,-4,1,-4,1313
4,5,2,-5,-4,2,-4,356
4,5,3,-5,-4,1,-5,650
4,5,4,-5,-4,2,-4,1082
4,5,5,-5,-4,2,-2,523
4,5,6,-5,-4,2,-4,389
4,5,7,-5,-4,2,-4,1051
4,5,8,-5,-4,2,-6,352
4,5,9,-5,-4,2,-4,612
4,5,10,-5,-4,2,-4,348
4,6,1,-9,15,1,-9,913
4,6,2,-9,15,2,14,379
4,6,3,-9,15,2,16,384
4,6,4,-9,15,2,16,391
4,6,5,-9,15,2,14,420
4,6,6,-9,15,2,15,545
4,6,7,-9,15,2,14,376
4,6,8,-9,15,2,14,349
4,6,9,-9,15,2,16,389
4,6,10,-9,15,2,16,387
4,7,1,6,16,2,14,600
4,7,2,6,16,2,15,354
4,7,3,6,16,2,16,355
4,7,4,6,16,2,16,380
4,7,5,6,16,2,17,367
4,7,6,6,16,2,16,490
4,7,7,6,16,2,16,384
4,7,8,6,16,2,15,391
4,7,9,6,16,2,18,370
4,7,10,6,16,2,15,374
4,8,1,-3,-4,1,-4,367
4,8,2,-3,-4,2,-3,542
4,8,3,-3,-4,2,-4,529
4,8,4,-3,-4,2,-2,474
4,8,5,-3,-4,2,-4,393
4,8,6,-3,-4,1,-2,519
4,8,7,-3,-4,1,-3,998
4,8,8,-3,-4,1,-4,411
4,8,9,-3,-4,2,-3,387
4,8,10,-3,-4,2,-5,435
4,9,1,9,-5,1,9,1241
4,9,2,9,-5,1,8,1121
4,9,3,9,-5,1,10,332
4,9,4,9,-5,1,8,404
4,9,5,9,-5,1,9,387
4,9,6,9,-5,1,10,366
4,9,7,9,-5,1,9,479
4,9,8,9,-5,1,7,307
4,9,9,9,-5,1,10,355
4,9,10,9,-5,1,9,337
4,10,1,9,-4,2,-3,612
4,10,2,9,-4,1,8,371
4,10,3,9,-4,1,10,1073
4,10,4,9,-4,1,9,674
4,10,5,9,-4,1,9,462
4,10,6,9,-4,1,10,485
4,10,7,9,-4,1,8,550
4,10,8,9,-4,1,10,372
4,10,9,9,-4,1,9,382
4,10,10,9,-4,1,10,619
4,11,1,2,6,1,2,486
4,11,2,2,6,2,4,353
4,11,3,2,6,2,7,343
4,11,4,2,6,2,6,414
4,11,5,2,6,2,6,360
4,11,6,2,6,2,5,400
4,11,7,2,6,2,6,451
4,11,8,2,6,2,7,412
4,11,9,2,6,2,6,388
4,11,10,2,6,2,5,397
4,12,1,13,-8,1,12,484
4,12,2,13,-8,1,12,327
4,12,3,13,-8,1,13,1013
4,12,4,13,-8,1,14,296
4,12,5,13,-8,1,14,883
4,12,6,13,-8,1,13,596
4,12,7,13,-8,1,13,443
4,12,8,13,-8,1,13,437
4,12,9,13,-8,1,12,824
4,12,10,13,-8,1,13,364
4,13,1,-4,2,1,-6,565
4,13,2,-4,2,2,2,15
4,13,3,-4,2,2,2,289
4,13,4,-4,2,2,0,349
4,13,5,-4,2,2,2,378
4,13,6,-4,2,1,-4,15
4,13,7,-4,2,2,3,432
4,13,8,-4,2,2,1,761
4,13,9,-4,2,2,0,390
4,13,10,-4,2,2,2,356
4,14,1,-1,17,2,18,579
4,14,2,-1,17,2,16,304
4,14,3,-1,17,2,17,395
4,14,4,-1,17,2,17,495
4,14,5,-1,17,2,17,387
4,14,6,-1,17,2,17,1382
4,14,7,-1,17,2,16,623
4,14,8,-1,17,2,19,343
4,14,9,-1,17,2,19,356
4,14,10,-1,17,2,18,9
4,15,1,0,-4,2,-3,521
4,15,2,0,-4,1,-2,333
4,15,3,0,-4,1,-1,856
4,15,4,0,-4,1,-1,347
4,15,5,0,-4,1,0,325
4,15,6,0,-4,1,-1,334
4,15,7,0,-4,1,0,1055
4,15,8,0,-4,1,1,330
4,15,9,0,-4,1,-1,350
4,15,10,0,-4,2,-5,375
4,16,1,24,10,1,23,667
4,16,2,24,10,1,25,346
4,16,3,24,10,1,24,355
4,16,4,24,10,1,23,1130
4,16,5,24,10,1,24,311
4,16,6,24,10,1,25,369
4,16,7,24,10,1,24,376
4,16,8,24,10,1,23,374
4,16,9,24,10,1,23,404
4,16,10,24,10,1,23,359
4,17,1,2,19,1,3,523
4,17,2,2,19,2,20,351
4,17,3,2,19,2,21,719
4,17,4,2,19,2,19,364
4,17,5,2,19,2,17,1057
4,17,6,2,19,2,20,359
4,17,7,2,19,2,21,360
4,17,8,2,19,2,19,364
4,17,9,2,19,2,19,407
4,17,10,2,19,2,20,386
4,18,1,-6,-16,2,-15,839
4,18,2,-6,-16,1,-6,352
4,18,3,-6,-16,1,-6,369
4,18,4,-6,-16,1,-5,328
4,18,5,-6,-16,1,-6,1065
4,18,6,-6,-16,1,-7,319
4,18,7,-6,-16,1,-6,335
4,18,8,-6,-16,1,-6,361
4,18,9,-6,-16,1,-6,596
4,18,10,-6,-16,1,-7,406
4,19,1,6,-16,1,5,692
4,19,2,6,-16,2,-18,1247
4,19,3,6,-16,1,5,2499
4,19,4,6,-16,1,7,589
4,19,5,6,-16,1,7,416
4,19,6,6,-16,1,6,353
4,19,7,6,-16,1,7,350
4,19,8,6,-16,1,6,362
4,19,9,6,-16,1,6,350
4,19,10,6,-16,1,5,336
4,20,1,21,-3,1,22,552
4,20,2,21,-3,1,21,868
4,20,3,21,-3,1,23,375
4,20,4,21,-3,1,21,848
4,20,5,21,-3,1,19,420
4,20,6,21,-3,1,22,375
4,20,7,21,-3,1,21,387
4,20,8,21,-3,1,19,388
4,20,9,21,-3,1,21,336
4,20,10,21,-3,1,21,346
5,1,1,12,2,1,12,2600
5,1,2,12,2,1,11,601
5,1,3,12,2,1,13,509
5,1,4,12,2,1,12,562
5,1,5,12,2,1,12,605
5,1,6,12,2,1,12,648
5,1,7,12,2,1,11,510
5,1,8,12,2,2,2,480
5,1,9,12,2,1,13,439
5,1,10,12,2,1,13,549
5,2,1,4,14,2,14,943
5,2,2,4,14,2,14,402
5,2,3,4,14,2,14,435
5,2,4,4,14,1,4,749
5,2,5,4,14,2,14,342
5,2,6,4,14,2,14,434
5,2,7,4,14,2,14,449
5,2,8,4,14,2,15,543
5,2,9,4,14,2,14,677
5,2,10,4,14,2,14,485
5,3,1,-20,-7,2,-5,616
5,3,2,-20,-7,1,-18,1311
5,3,3,-20,-7,2,-7,540
5,3,4,-20,-7,2,-7,359
5,3,5,-20,-7,2,-6,408
5,3,6,-20,-7,2,-6,420
5,3,7,-20,-7,1,-19,377
5,3,8,-20,-7,2,-7,494
5,3,9,-20,-7,2,-8,443
5,3,10,-20,-7,2,-6,456
5,4,1,-15,-4,2,-4,600
5,4,2,-15,-4,1,-13,353
5,4,3,-15,-4,2,-5,512
5,4,4,-15,-4,2,-4,408
5,4,5,-15,-4,2,-6,409
5,4,6,-15,-4,2,-3,399
5,4,7,-15,-4,2,-5,496
5,4,8,-15,-4,2,-6,514
5,4,9,-15,-4,2,-3,494
5,4,10,-15,-4,2,-3,517
5,5,1,16,13,2,11,424
5,5,2,16,13,1,17,624
5,5,3,16,13,1,16,480
5,5,4,16,13,1,16,495
5,5,5,16,13,1,17,486
5,5,6,16,13,1,16,599
5,5,7,16,13,1,14,643
5,5,8,16,13,1,16,763
5,5,9,16,13,1,14,440
5,5,10,16,13,1,16,453
5,6,1,-9,-9,2,-10,730
5,6,2,-9,-9,1,-10,477
5,6,3,-9,-9,1,-8,389
5,6,4,-9,-9,1,-9,502
5,6,5,-9,-9,2,-9,355
5,6,6,-9,-9,2,-9,365
5,6,7,-9,-9,1,-7,372
5,6,8,-9,-9,1,-9,350
5,6,9,-9,-9,1,-10,368
5,6,10,-9,-9,1,-10,341
5,7,1,6,7,2,7,509
5,7,2,6,7,1,5,531
5,7,3,6,7,2,8,355
5,7,4,6,7,2,5,339
5,7,5,6,7,2,7,330
5,7,6,6,7,2,7,342
5,7,7,6,7,2,6,318
5,7,8,6,7,2,7,310
5,7,9,6,7,2,7,408
5,7,10,6,7,2,8,359
5,8,1,14,9,2,9,825
5,8,2,14,9,1,14,396
5,8,3,14,9,1,12,486
5,8,4,14,9,1,15,364
5,8,5,14,9,1,13,329
5,8,6,14,9,1,14,251
5,8,7,14,9,1,13,311
5,8,8,14,9,1,12,313
5,8,9,14,9,1,14,327
5,8,10,14,9,1,15,360
5,9,1,-7,22,1,-7,776
5,9,2,-7,22,2,22,379
5,9,3,-7,22,2,24,320
5,9,4,-7,22,2,22,293
5,9,5,-7,22,2,22,341
5,9,6,-7,22,2,21,315
5,9,7,-7,22,2,21,398
5,9,8,-7,22,2,23,342
5,9,9,-7,22,2,21,342
5,9,10,-7,22,2,22,349
5,10,1,-1,-1,2,-2,515
5,10,2,-1,-1,1,-1,352
5,10,3,-1,-1,1,0,271
5,10,4,-1,-1,1,-3,325
5,10,5,-1,-1,1,-2,353
5,10,6,-1,-1,1,0,323
5,10,7,-1,-1,1,-1,307
5,10,8,-1,-1,1,-1,342
5,10,9,-1,-1,1,-1,301
5,10,10,-1,-1,1,0,325
5,11,1,-3,-17,2,-16,704
5,11,2,-3,-17,1,-4,363
5,11,3,-3,-17,1,-2,358
5,11,4,-3,-17,1,-4,326
5,11,5,-3,-17,1,-4,300
5,11,6,-3,-17,1,-2,305
5,11,7,-3,-17,1,-3,350
5,11,8,-3,-17,1,-2,327
5,11,9,-3,-17,1,-4,331
5,11,10,-3,-17,1,-4,342
5,12,1,0,1,2,1,887
5,12,2,0,1,1,1,395
5,12,3,0,1,1,0,350
5,12,4,0,1,2,1,512
5,12,5,0,1,2,0,296
5,12,6,0,1,2,1,305
5,12,7,0,1,2,1,320
5,12,8,0,1,2,2,320
5,12,9,0,1,2,2,340
5,12,10,0,1,2,0,279
5,13,1,11,-5,2,-5,567
5,13,2,11,-5,1,11,412
5,13,3,11,-5,1,10,304
5,13,4,11,-5,1,12,233
5,13,5,11,-5,1,11,313
5,13,6,11,-5,1,10,320
5,13,7,11,-5,1,10,331
5,13,8,11,-5,1,12,314
5,13,9,11,-5,1,10,288
5,13,10,11,-5,1,10,318
5,14,1,2,-10,1,0,653
5,14,2,2,-10,2,-9,354
5,14,3,2,-10,1,2,361
5,14,4,2,-10,1,1,296
5,14,5,2,-10,1,3,271
5,14,6,2,-10,1,4,304
5,14,7,2,-10,1,2,358
5,14,8,2,-10,1,2,381
5,14,9,2,-10,1,3,328
5,14,10,2,-10,1,3,330
5,15,1,4,-10,1,5,567
5,15,2,4,-10,2,-10,309
5,15,3,4,-10,1,4,374
5,15,4,4,-10,1,7,372
5,15,5,4,-10,1,4,286
5,15,6,4,-10,1,4,319
5,15,7,4,-10,1,5,304
5,15,8,4,-10,1,5,411
5,15,9,4,-10,1,4,341
5,15,10,4,-10,1,3,355
5,16,1,21,-12,1,22,563
5,16,2,21,-12,2,-13,557
5,16,3,21,-12,1,20,425
5,16,4,21,-12,1,22,294
5,16,5,21,-12,1,22,278
5,16,6,21,-12,1,21,301
5,16,7,21,-12,1,21,358
5,16,8,21,-12,1,22,294
5,16,9,21,-12,1,21,332
5,16,10,21,-12,1,21,335
5,17,1,-1,-11,1,-1,416
5,17,2,-1,-11,2,-13,397
5,17,3,-1,-11,1,0,406
5,17,4,-1,-11,1,-3,259
5,17,5,-1,-11,1,0,314
5,17,6,-1,-11,1,-2,337
5,17,7,-1,-11,1,-1,310
5,17,8,-1,-11,1,-2,280
5,17,9,-1,-11,1,-2,319
5,17,10,-1,-11,1,-2,309
5,18,1,3,6,1,1,430
5,18,2,3,6,2,4,619
5,18,3,3,6,2,6,341
5,18,4,3,6,2,5,280
5,18,5,3,6,2,6,634
5,18,6,3,6,2,5,371
5,18,7,3,6,2,5,393
5,18,8,3,6,2,5,397
5,18,9,3,6,2,8,340
5,18,10,3,6,2,5,335
5,19,1,3,-11,2,-12,465
5,19,2,3,-11,1,4,367
5,19,3,3,-11,1,3,290
5,19,4,3,-11,1,2,333
5,19,5,3,-11,1,3,317
5,19,6,3,-11,1,3,318
5,19,7,3,-11,1,3,308
5,19,8,3,-11,1,3,310
5,19,9,3,-11,1,3,329
5,19,10,3,-11,1,3,313
5,20,1,4,-7,1,3,412
5,20,2,4,-7,2,-7,352
5,20,3,4,-7,1,5,366
5,20,4,4,-7,1,3,353
5,20,5,4,-7,1,3,342
5,20,6,4,-7,1,4,319
5,20,7,4,-7,1,1,375
5,20,8,4,-7,1,5,351
5,20,9,4,-7,1,5,339
5,20,10,4,-7,1,5,309
6,1,1,0,-8,2,-8,1147
6,1,2,0,-8,1,0,566
6,1,3,0,-8,2,-9,470
6,1,4,0,-8,1,1,449
6,1,5,0,-8,1,1,495
6,1,6,0,-8,1,0,436
6,1,7,0,-8,1,-1,402
6,1,8,0,-8,1,-1,404
6,1,9,0,-8,2,-6,415
6,1,10,0,-8,1,-1,472
6,2,1,-6,-8,1,-7,552
6,2,2,-6,-8,2,-7,415
6,2,3,-6,-8,2,-8,414
6,2,4,-6,-8,1,-7,427
6,2,5,-6,-8,1,-6,393
6,2,6,-6,-8,1,-6,405
6,2,7,-6,-8,2,-9,437
6,2,8,-6,-8,2,-7,405
6,2,9,-6,-8,1,-6,415
6,2,10,-6,-8,1,-5,347
6,3,1,-13,-8,2,-8,505
6,3,2,-13,-8,1,-13,392
6,3,3,-13,-8,2,-8,462
6,3,4,-13,-8,1,-13,785
6,3,5,-13,-8,2,-8,382
6,3,6,-13,-8,2,-7,381
6,3,7,-13,-8,2,-10,718
6,3,8,-13,-8,2,-8,359
6,3,9,-13,-8,2,-8,369
6,3,10,-13,-8,1,-12,437
6,4,1,8,-4,2,-3,655
6,4,2,8,-4,2,-4,413
6,4,3,8,-4,2,-4,393
6,4,4,8,-4,1,8,425
6,4,5,8,-4,1,8,403
6,4,6,8,-4,1,9,359
6,4,7,8,-4,1,6,381
6,4,8,8,-4,1,10,382
6,4,9,8,-4,1,7,380
6,4,10,8,-4,1,8,424
6,5,1,6,4,2,5,517
6,5,2,6,4,1,7,415
6,5,3,6,4,1,6,436
6,5,4,6,4,2,4,393
6,5,5,6,4,1,6,393
6,5,6,6,4,1,6,516
6,5,7,6,4,2,6,383
6,5,8,6,4,1,4,400
6,5,9,6,4,2,4,398
6,5,10,6,4,1,7,415
6,6,1,9,-1,2,-1,502
6,6,2,9,-1,1,9,399
6,6,3,9,-1,1,9,350
6,6,4,9,-1,1,9,368
6,6,5,9,-1,1,8,368
6,6,6,9,-1,1,7,368
6,6,7,9,-1,1,9,368
6,6,8,9,-1,1,9,414
6,6,9,9,-1,1,10,417
6,6,10,9,-1,1,9,369
6,7,1,19,4,2,3,483
6,7,2,19,4,1,18,436
6,7,3,19,4,1,17,335
6,7,4,19,4,1,19,351
6,7,5,19,4,1,20,336
6,7,6,19,4,1,18,352
6,7,7,19,4,1,18,350
6,7,8,19,4,1,18,383
6,7,9,19,4,1,19,382
6,7,10,19,4,1,19,363
6,8,1,-9,20,2,20,384
6,8,2,-9,20,1,-9,419
6,8,3,-9,20,2,20,334
6,8,4,-9,20,2,19,320
6,8,5,-9,20,2,19,386
6,8,6,-9,20,2,21,400
6,8,7,-9,20,2,20,435
6,8,8,-9,20,2,21,350
6,8,9,-9,20,2,20,400
6,8,10,-9,20,2,20,516
6,9,1,9,5,2,5,535
6,9,2,9,5,1,10,432
6,9,3,9,5,1,8,336
6,9,4,9,5,1,8,419
6,9,5,9,5,1,9,499
6,9,6,9,5,1,9,498
6,9,7,9,5,1,8,670
6,9,8,9,5,1,9,383
6,9,9,9,5,1,9,366
6,9,10,9,5,1,9,352
6,10,1,-4,-6,2,-5,753
6,10,2,-4,-6,1,-4,417
6,10,3,-4,-6,2,-6,416
6,10,4,-4,-6,1,-2,476
6,10,5,-4,-6,2,-6,583
6,10,6,-4,-6,1,-3,549
6,10,7,-4,-6,2,-6,886
6,10,8,-4,-6,1,-4,486
6,10,9,-4,-6,1,-4,450
6,10,10,-4,-6,1,-4,486
6,11,1,4,-20,2,-19,466
6,11,2,4,-20,1,5,368
6,11,3,4,-20,1,3,303
6,11,4,4,-20,1,5,451
6,11,5,4,-20,1,4,352
6,11,6,4,-20,1,3,667
6,11,7,4,-20,1,5,348
6,11,8,4,-20,1,4,349
6,11,9,4,-20,1,4,367
6,11,10,4,-20,1,3,335
6,12,1,-18,-9,2,-9,417
6,12,2,-18,-9,1,-18,348
6,12,3,-18,-9,2,-8,510
6,12,4,-18,-9,2,-9,357
6,12,5,-18,-9,2,-9,335
6,12,6,-18,-9,2,-9,367
6,12,7,-18,-9,2,-9,352
6,12,8,-18,-9,2,-9,383
6,12,9,-18,-9,2,-10,382
6,12,10,-18,-9,2,-9,465
6,13,1,-3,-1,2,-1,449
6,13,2,-3,-1,1,-3,384
6,13,3,-3,-1,2,-1,367
6,13,4,-3,-1,2,-1,332
6,13,5,-3,-1,2,0,335
6,13,6,-3,-1,2,-2,366
6,13,7,-3,-1,1,-2,432
6,13,8,-3,-1,2,-2,382
6,13,9,-3,-1,2,2,365
6,13,10,-3,-1,2,1,449
6,14,1,-1,11,2,11,428
6,14,2,-1,11,1,-1,418
6,14,3,-1,11,2,10,384
6,14,4,-1,11,2,11,400
6,14,5,-1,11,2,11,315
6,14,6,-1,11,2,11,364
6,14,7,-1,11,2,10,384
6,14,8,-1,11,2,10,366
6,14,9,-1,11,2,13,436
6,14,10,-1,11,2,10,433
6,15,1,-4,4,2,6,499
6,15,2,-4,4,1,-4,400
6,15,3,-4,4,2,4,335
6,15,4,-4,4,2,4,317
6,15,5,-4,4,2,4,366
6,15,6,-4,4,2,4,417
6,15,7,-4,4,2,4,383
6,15,8,-4,4,2,4,397
6,15,9,-4,4,2,4,432
6,15,10,-4,4,2,4,383
6,16,1,-5,-3,2,-4,420
6,16,2,-5,-3,1,-6,333
6,16,3,-5,-3,2,-3,367
6,16,4,-5,-3,2,-2,333
6,16,5,-5,-3,2,-2,367
6,16,6,-5,-3,2,-3,351
6,16,7,-5,-3,2,-3,381
6,16,8,-5,-3,2,-2,400
6,16,9,-5,-3,2,-2,350
6,16,10,-5,-3,2,-2,365
6,17,1,-11,-2,2,-2,404
6,17,2,-11,-2,1,-12,450
6,17,3,-11,-2,2,0,335
6,17,4,-11,-2,2,-2,319
6,17,5,-11,-2,2,-2,333
6,17,6,-11,-2,2,-3,351
6,17,7,-11,-2,2,-3,484
6,17,8,-11,-2,2,-3,334
6,17,9,-11,-2,2,-3,350
6,17,10,-11,-2,2,-2,448
6,18,1,-7,-2,2,-4,400
6,18,2,-7,-2,1,-9,402
6,18,3,-7,-2,2,-2,864
6,18,4,-7,-2,2,-1,366
6,18,5,-7,-2,2,-2,467
6,18,6,-7,-2,2,-1,419
6,18,7,-7,-2,2,-5,733
6,18,8,-7,-2,2,-1,435
6,18,9,-7,-2,2,-3,401
6,18,10,-7,-2,2,-1,463
6,19,1,-8,-15,2,-15,418
6,19,2,-8,-15,1,-8,382
6,19,3,-8,-15,1,-8,400
6,19,4,-8,-15,1,-8,351
6,19,5,-8,-15,1,-7,316
6,19,6,-8,-15,1,-7,333
6,19,7,-8,-15,1,-7,285
6,19,8,-8,-15,1,-8,351
6,19,9,-8,-15,1,-9,401
6,19,10,-8,-15,1,-9,422
6,20,1,2,-8,2,-9,400
6,20,2,2,-8,1,2,367
6,20,3,2,-8,1,2,384
6,20,4,2,-8,1,1,630
6,20,5,2,-8,1,4,353
6,20,6,2,-8,1,2,498
6,20,7,2,-8,1,3,415
6,20,8,2,-8,1,0,366
6,20,9,2,-8,1,2,319
6,20,10,2,-8,1,3,418
7,1,1,-5,-6,2,-7,1241
7,1,2,-5,-6,1,-5,876
7,1,3,-5,-6,2,-6,434
7,1,4,-5,-6,2,-4,382
7,1,5,-5,-6,1,-4,417
7,1,6,-5,-6,2,-5,400
7,1,7,-5,-6,2,-5,512
7,1,8,-5,-6,2,-7,335
7,1,9,-5,-6,2,-6,304
7,1,10,-5,-6,2,-6,303
7,2,1,-2,5,2,5,849
7,2,2,-2,5,2,3,463
7,2,3,-2,5,1,-3,515
7,2,4,-2,5,2,5,320
7,2,5,-2,5,2,8,384
7,2,6,-2,5,2,7,352
7,2,7,-2,5,2,4,306
7,2,8,-2,5,2,4,399
7,2,9,-2,5,2,5,322
7,2,10,-2,5,2,5,350
7,3,1,-3,7,2,8,415
7,3,2,-3,7,1,-3,479
7,3,3,-3,7,2,7,288
7,3,4,-3,7,2,6,366
7,3,5,-3,7,2,6,338
7,3,6,-3,7,2,7,351
7,3,7,-3,7,2,8,303
7,3,8,-3,7,2,7,354
7,3,9,-3,7,2,7,368
7,3,10,-3,7,2,8,495
7,4,1,-8,-9,2,-9,611
7,4,2,-8,-9,1,-7,337
7,4,3,-8,-9,1,-9,448
7,4,4,-8,-9,2,-10,353
7,4,5,-8,-9,1,-6,318
7,4,6,-8,-9,1,-10,367
7,4,7,-8,-9,2,-10,433
7,4,8,-8,-9,1,-8,363
7,4,9,-8,-9,2,-9,350
7,4,10,-8,-9,1,-7,319
7,5,1,-11,-8,1,-12,642
7,5,2,-11,-8,2,-9,494
7,5,3,-11,-8,1,-12,385
7,5,4,-11,-8,2,-8,353
7,5,5,-11,-8,2,-6,368
7,5,6,-11,-8,2,-7,303
7,5,7,-11,-8,2,-9,304
7,5,8,-11,-8,2,-6,432
7,5,9,-11,-8,2,-8,446
7,5,10,-11,-8,2,-8,443
7,6,1,1,12,2,12,371
7,6,2,1,12,1,2,383
7,6,3,1,12,2,12,303
7,6,4,1,12,2,13,256
7,6,5,1,12,2,12,639
7,6,6,1,12,2,13,290
7,6,7,1,12,2,13,304
7,6,8,1,12,2,10,256
7,6,9,1,12,2,13,303
7,6,10,1,12,2,13,376
7,7,1,-16,-11,2,-12,467
7,7,2,-16,-11,1,-16,384
7,7,3,-16,-11,2,-11,592
7,7,4,-16,-11,1,-16,287
7,7,5,-16,-11,2,-10,256
7,7,6,-16,-11,2,-12,303
7,7,7,-16,-11,2,-12,366
7,7,8,-16,-11,2,-11,284
7,7,9,-16,-11,2,-10,348
7,7,10,-16,-11,2,-10,298
7,8,1,-10,-6,2,-6,415
7,8,2,-10,-6,1,-13,319
7,8,3,-10,-6,2,-5,431
7,8,4,-10,-6,2,-5,283
7,8,5,-10,-6,2,-6,255
7,8,6,-10,-6,2,-5,288
7,8,7,-10,-6,2,-6,304
7,8,8,-10,-6,2,-5,304
7,8,9,-10,-6,2,-6,304
7,8,10,-10,-6,2,-7,319
7,9,1,-1,-6,2,-5,416
7,9,2,-1,-6,1,-1,447
7,9,3,-1,-6,1,-2,417
7,9,4,-1,-6,1,-2,251
7,9,5,-1,-6,1,-1,287
7,9,6,-1,-6,1,0,317
7,9,7,-1,-6,1,1,339
7,9,8,-1,-6,1,-3,351
7,9,9,-1,-6,1,0,320
7,9,10,-1,-6,1,-1,368
7,10,1,6,5,1,7,447
7,10,2,6,5,2,7,357
7,10,3,6,5,1,4,319
7,10,4,6,5,2,7,315
7,10,5,6,5,2,3,269
7,10,6,6,5,1,7,368
7,10,7,6,5,1,6,367
7,10,8,6,5,1,7,303
7,10,9,6,5,1,6,322
7,10,10,6,5,1,6,347
7,11,1,7,-14,1,6,448
7,11,2,7,-14,2,-13,303
7,11,3,7,-14,1,6,399
7,11,4,7,-14,1,8,319
7,11,5,7,-14,1,7,271
7,11,6,7,-14,1,8,303
7,11,7,7,-14,1,6,417
7,11,8,7,-14,1,6,6616
7,11,9,7,-14,1,6,294
7,11,10,7,-14,1,8,272
7,12,1,7,-2,2,0,656
7,12,2,7,-2,1,7,336
7,12,3,7,-2,1,6,465
7,12,4,7,-2,1,8,271
7,12,5,7,-2,1,5,273
7,12,6,7,-2,1,6,288
7,12,7,7,-2,1,7,369
7,12,8,7,-2,1,6,306
7,12,9,7,-2,1,8,320
7,12,10,7,-2,1,8,272
7,13,1,6,6,1,5,496
7,13,2,6,6,2,4,630
7,13,3,6,6,1,7,303
7,13,4,6,6,2,7,499
7,13,5,6,6,1,6,368
7,13,6,6,6,2,4,305
7,13,7,6,6,1,7,271
7,13,8,6,6,1,5,334
7,13,9,6,6,1,8,303
7,13,10,6,6,1,7,338
7,14,1,-16,-20,1,-16,414
7,14,2,-16,-20,2,-20,321
7,14,3,-16,-20,1,-15,400
7,14,4,-16,-20,2,-21,332
7,14,5,-16,-20,1,-14,512
7,14,6,-16,-20,1,-16,288
7,14,7,-16,-20,1,-17,319
7,14,8,-16,-20,1,-16,287
7,14,9,-16,-20,1,-16,349
7,14,10,-16,-20,1,-17,302
7,15,1,5,1,1,6,448
7,15,2,5,1,2,0,476
7,15,3,5,1,1,5,1458
7,15,4,5,1,1,6,1069
7,15,5,5,1,1,6,352
7,15,6,5,1,1,5,340
7,15,7,5,1,1,3,386
7,15,8,5,1,1,4,381
7,15,9,5,1,1,5,354
7,15,10,5,1,1,5,387
7,16,1,-14,4,1,-14,400
7,16,2,-14,4,2,3,335
7,16,3,-14,4,2,3,335
7,16,4,-14,4,2,4,321
7,16,5,-14,4,2,2,287
7,16,6,-14,4,2,4,319
7,16,7,-14,4,2,6,303
7,16,8,-14,4,2,4,304
7,16,9,-14,4,2,4,322
7,16,10,-14,4,2,3,351
7,17,1,-9,-4,1,-10,352
7,17,2,-9,-4,2,-4,399
7,17,3,-9,-4,1,-10,384
7,17,4,-9,-4,2,-4,367
7,17,5,-9,-4,2,-4,309
7,17,6,-9,-4,2,-5,286
7,17,7,-9,-4,2,-5,333
7,17,8,-9,-4,2,-5,495
7,17,9,-9,-4,2,-5,352
7,17,10,-9,-4,2,-5,368
7,18,1,12,6,1,13,385
7,18,2,12,6,2,5,383
7,18,3,12,6,1,11,287
7,18,4,12,6,1,13,591
7,18,5,12,6,1,11,319
7,18,6,12,6,1,12,320
7,18,7,12,6,1,12,401
7,18,8,12,6,1,11,380
7,18,9,12,6,1,13,319
7,18,10,12,6,1,13,303
7,19,1,8,2,1,8,536
7,19,2,8,2,2,4,382
7,19,3,8,2,1,8,303
7,19,4,8,2,1,8,367
7,19,5,8,2,1,9,289
7,19,6,8,2,1,9,257
7,19,7,8,2,1,8,273
7,19,8,8,2,1,8,349
7,19,9,8,2,1,9,336
7,19,10,8,2,1,9,315
7,20,1,14,1,1,13,418
7,20,2,14,1,2,0,830
7,20,3,14,1,1,15,329
7,20,4,14,1,1,14,273
7,20,5,14,1,1,15,273
7,20,6,14,1,1,15,284
7,20,7,14,1,1,15,337
7,20,8,14,1,1,16,336
7,20,9,14,1,1,15,306
7,20,10,14,1,1,15,335
8,1,1,-10,12,1,-11,1256
8,1,2,-10,12,2,11,901
8,1,3,-10,12,2,13,791
8,1,4,-10,12,2,12,888
8,1,5,-10,12,2,10,1080
8,1,6,-10,12,1,-11,688
8,1,7,-10,12,2,11,569
8,1,8,-10,12,2,13,552
8,1,9,-10,12,2,13,656
8,1,10,-10,12,2,12,576
8,2,1,2,-1,1,3,1344
8,2,2,2,-1,2,0,712
8,2,3,2,-1,2,-1,864
8,2,4,2,-1,1,3,871
8,2,5,2,-1,1,1,696
8,2,6,2,-1,1,2,576
8,2,7,2,-1,2,1,616
8,2,8,2,-1,2,-1,791
8,2,9,2,-1,1,1,664
8,2,10,2,-1,1,2,856
8,3,1,-2,-2,1,-2,1401
8,3,2,-2,-2,1,-3,626
8,3,3,-2,-2,1,-3,616
8,3,4,-2,-2,2,-1,488
8,3,5,-2,-2,2,0,575
8,3,6,-2,-2,2,-1,519
8,3,7,-2,-2,2,-2,471
8,3,8,-2,-2,2,-3,480
8,3,9,-2,-2,2,-1,615
8,3,10,-2,-2,1,-2,1112
8,4,1,-8,-7,1,-7,1184
8,4,2,-8,-7,2,-6,544
8,4,3,-8,-7,2,-8,831
8,4,4,-8,-7,1,-7,639
8,4,5,-8,-7,1,-9,682
8,4,6,-8,-7,2,-8,606
8,4,7,-8,-7,2,-7,641
8,4,8,-8,-7,2,-6,680
8,4,9,-8,-7,2,-6,560
8,4,10,-8,-7,1,-9,528
8,5,1,7,-8,1,8,1033
8,5,2,7,-8,1,7,929
8,5,3,7,-8,2,-7,631
8,5,4,7,-8,2,-9,831
8,5,5,7,-8,1,7,457
8,5,6,7,-8,1,7,496
8,5,7,7,-8,1,9,496
8,5,8,7,-8,1,7,774
8,5,9,7,-8,1,7,504
8,5,10,7,-8,1,7,517
8,6,1,-6,-5,1,-8,1305
8,6,2,-6,-5,2,-5,496
8,6,3,-6,-5,1,-6,856
8,6,4,-6,-5,2,-5,680
8,6,5,-6,-5,2,-5,592
8,6,6,-6,-5,1,-6,608
8,6,7,-6,-5,2,-6,567
8,6,8,-6,-5,2,-5,616
8,6,9,-6,-5,2,-6,552
8,6,10,-6,-5,2,-4,583
8,7,1,-3,8,1,-2,894
8,7,2,-3,8,1,-4,632
8,7,3,-3,8,2,8,518
8,7,4,-3,8,2,8,467
8,7,5,-3,8,2,9,529
8,7,6,-3,8,2,8,472
8,7,7,-3,8,2,7,658
8,7,8,-3,8,2,6,462
8,7,9,-3,8,2,11,560
8,7,10,-3,8,2,6,655
8,8,1,-10,-13,1,-10,1353
8,8,2,-10,-13,2,-14,926
8,8,3,-10,-13,2,-13,888
8,8,4,-10,-13,1,-11,629
8,8,5,-10,-13,1,-10,568
8,8,6,-10,-13,1,-12,761
8,8,7,-10,-13,2,-13,575
8,8,8,-10,-13,1,-10,504
8,8,9,-10,-13,1,-12,590
8,8,10,-10,-13,1,-9,526
8,9,1,-14,-5,1,-14,976
8,9,2,-14,-5,1,-15,1143
8,9,3,-14,-5,2,-4,544
8,9,4,-14,-5,2,-4,598
8,9,5,-14,-5,2,-6,486
8,9,6,-14,-5,2,-4,488
8,9,7,-14,-5,2,-4,416
8,9,8,-14,-5,2,-5,456
8,9,9,-14,-5,2,-5,552
8,9,10,-14,-5,2,-5,431
8,10,1,0,2,1,0,876
8,10,2,0,2,1,-1,1007
8,10,3,0,2,2,3,545
8,10,4,0,2,2,2,456
8,10,5,0,2,2,1,478
8,10,6,0,2,2,3,529
8,10,7,0,2,2,4,487
8,10,8,0,2,2,3,592
8,10,9,0,2,1,0,589
8,10,10,0,2,2,2,566
8,11,1,2,17,1,2,1055
8,11,2,2,17,1,0,1037
8,11,3,2,17,2,18,657
8,11,4,2,17,2,18,504
8,11,5,2,17,2,18,511
8,11,6,2,17,2,16,496
8,11,7,2,17,2,19,456
8,11,8,2,17,2,16,455
8,11,9,2,17,2,18,444
8,11,10,2,17,2,18,408
8,12,1,-8,-11,1,-7,830
8,12,2,-8,-11,2,-10,488
8,12,3,-8,-11,1,-9,639
8,12,4,-8,-11,2,-11,728
8,12,5,-8,-11,1,-9,512
8,12,6,-8,-11,1,-6,552
8,12,7,-8,-11,1,-9,480
8,12,8,-8,-11,1,-8,533
8,12,9,-8,-11,1,-7,511
8,12,10,-8,-11,1,-9,607
8,13,1,-7,2,1,-6,983
8,13,2,-7,2,2,2,1688
8,13,3,-7,2,2,3,1008
8,13,4,-7,2,1,-7,864
8,13,5,-7,2,2,1,543
8,13,6,-7,2,2,2,457
8,13,7,-7,2,2,4,494
8,13,8,-7,2,2,1,551
8,13,9,-7,2,2,1,600
8,13,10,-7,2,2,0,510
8,14,1,5,1,1,4,961
8,14,2,5,1,2,2,520
8,14,3,5,1,2,1,1143
8,14,4,5,1,1,6,464
8,14,5,5,1,1,4,441
8,14,6,5,1,1,5,512
8,14,7,5,1,1,3,583
8,14,8,5,1,1,5,479
8,14,9,5,1,1,4,486
8,14,10,5,1,1,5,455
8,15,1,-8,-6,1,-9,1351
8,15,2,-8,-6,2,-6,1375
8,15,3,-8,-6,2,-5,713
8,15,4,-8,-6,2,-6,536
8,15,5,-8,-6,1,-9,824
8,15,6,-8,-6,2,-7,479
8,15,7,-8,-6,2,-6,474
8,15,8,-8,-6,2,-5,440
8,15,9,-8,-6,2,-6,511
8,15,10,-8,-6,2,-6,535
8,16,1,-7,10,1,-7,832
8,16,2,-7,10,2,9,1306
8,16,3,-7,10,2,9,408
8,16,4,-7,10,2,11,543
8,16,5,-7,10,2,11,454
8,16,6,-7,10,2,9,461
8,16,7,-7,10,2,10,438
8,16,8,-7,10,2,11,448
8,16,9,-7,10,2,9,470
8,16,10,-7,10,2,11,503
8,17,1,1,-4,2,-5,937
8,17,2,1,-4,1,2,447
8,17,3,1,-4,1,2,1399
8,17,4,1,-4,1,2,440
8,17,5,1,-4,1,1,448
8,17,6,1,-4,1,0,423
8,17,7,1,-4,1,-1,463
8,17,8,1,-4,1,1,471
8,17,9,1,-4,1,1,455
8,17,10,1,-4,1,1,448
8,18,1,-7,7,1,-7,776
8,18,2,-7,7,2,8,528
8,18,3,-7,7,2,8,470
8,18,4,-7,7,2,7,472
8,18,5,-7,7,2,5,414
8,18,6,-7,7,2,7,437
8,18,7,-7,7,2,7,408
8,18,8,-7,7,2,7,487
8,18,9,-7,7,2,9,441
8,18,10,-7,7,2,8,464
8,19,1,-4,1,2,0,896
8,19,2,-4,1,1,-4,687
8,19,3,-4,1,2,1,615
8,19,4,-4,1,2,0,431
8,19,5,-4,1,2,3,464
8,19,6,-4,1,2,1,453
8,19,7,-4,1,1,-4,670
8,19,8,-4,1,2,0,478
8,19,9,-4,1,2,0,577
8,19,10,-4,1,2,1,480
8,20,1,-8,0,2,1,727
8,20,2,-8,0,1,-9,647
8,20,3,-8,0,2,-1,576
8,20,4,-8,0,2,0,607
8,20,5,-8,0,2,-1,543
8,20,6,-8,0,2,-1,511
8,20,7,-8,0,2,0,584
8,20,8,-8,0,2,-1,481
8,20,9,-8,0,2,-1,501
8,20,10,-8,0,2,-2,504
9,1,1,2,12,2,12,1773
9,1,2,2,12,1,1,846
9,1,3,2,12,2,11,704
9,1,4,2,12,2,11,496
9,1,5,2,12,2,12,386
9,1,6,2,12,2,12,335
9,1,7,2,12,2,11,327
9,1,8,2,12,2,14,427
9,1,9,2,12,2,11,369
9,1,10,2,12,2,12,319
9,2,1,-1,1,2,2,3104
9,2,2,-1,1,1,-1,496
9,2,3,-1,1,2,2,563
9,2,4,-1,1,1,0,1271
9,2,5,-1,1,2,1,662
9,2,6,-1,1,1,0,624
9,2,7,-1,1,2,3,638
9,2,8,-1,1,2,1,456
9,2,9,-1,1,2,1,529
9,2,10,-1,1,2,0,917
9,3,1,5,10,1,4,1480
9,3,2,5,10,2,9,575
9,3,3,5,10,2,10,449
9,3,4,5,10,2,8,358
9,3,5,5,10,2,9,343
9,3,6,5,10,2,10,372
9,3,7,5,10,2,9,415
9,3,8,5,10,2,12,424
9,3,9,5,10,2,11,385
9,3,10,5,10,2,10,384
9,4,1,-13,-7,2,-7,1623
9,4,2,-13,-7,1,-15,527
9,4,3,-13,-7,2,-7,399
9,4,4,-13,-7,2,-6,1215
9,4,5,-13,-7,2,-7,452
9,4,6,-13,-7,1,-12,822
9,4,7,-13,-7,2,-7,422
9,4,8,-13,-7,2,-7,342
9,4,9,-13,-7,2,-7,384
9,4,10,-13,-7,2,-7,408
9,5,1,-13,5,2,4,1880
9,5,2,-13,5,1,-13,439
9,5,3,-13,5,2,5,503
9,5,4,-13,5,2,6,401
9,5,5,-13,5,2,3,408
9,5,6,-13,5,2,5,399
9,5,7,-13,5,2,3,381
9,5,8,-13,5,2,6,398
9,5,9,-13,5,2,5,376
9,5,10,-13,5,2,4,357
9,6,1,22,-6,1,22,1155
9,6,2,22,-6,1,23,328
9,6,3,22,-6,1,23,332
9,6,4,22,-6,2,-5,637
9,6,5,22,-6,1,22,328
9,6,6,22,-6,1,22,327
9,6,7,22,-6,1,20,480
9,6,8,22,-6,1,19,328
9,6,9,22,-6,1,23,373
9,6,10,22,-6,1,21,377
9,7,1,5,-5,1,6,1176
9,7,2,5,-5,2,-5,447
9,7,3,5,-5,1,5,404
9,7,4,5,-5,1,5,391
9,7,5,5,-5,1,6,319
9,7,6,5,-5,1,4,344
9,7,7,5,-5,1,6,369
9,7,8,5,-5,1,4,351
9,7,9,5,-5,1,4,390
9,7,10,5,-5,1,4,498
9,8,1,10,7,2,5,1159
9,8,2,10,7,1,9,392
9,8,3,10,7,1,9,376
9,8,4,10,7,1,8,327
9,8,5,10,7,1,10,399
9,8,6,10,7,1,11,412
9,8,7,10,7,1,9,399
9,8,8,10,7,1,10,416
9,8,9,10,7,1,10,407
9,8,10,10,7,1,10,397
9,9,1,10,-6,1,10,2090
9,9,2,10,-6,2,-7,400
9,9,3,10,-6,1,10,359
9,9,4,10,-6,1,10,311
9,9,5,10,-6,1,10,384
9,9,6,10,-6,1,8,390
9,9,7,10,-6,1,9,632
9,9,8,10,-6,1,9,703
9,9,9,10,-6,1,11,742
9,9,10,10,-6,1,11,389
9,10,1,6,4,2,3,1264
9,10,2,6,4,2,5,591
9,10,3,6,4,1,4,421
9,10,4,6,4,2,4,561
9,10,5,6,4,1,4,430
9,10,6,6,4,2,3,384
9,10,7,6,4,1,7,398
9,10,8,6,4,1,4,358
9,10,9,6,4,1,6,366
9,10,10,6,4,1,7,783
9,11,1,8,12,2,13,1088
9,11,2,8,12,2,12,417
9,11,3,8,12,2,13,366
9,11,4,8,12,1,8,423
9,11,5,8,12,2,13,390
9,11,6,8,12,1,8,616
9,11,7,8,12,2,13,440
9,11,8,8,12,2,12,384
9,11,9,8,12,2,12,342
9,11,10,8,12,2,12,335
9,12,1,0,-3,1,1,920
9,12,2,0,-3,2,-4,353
9,12,3,0,-3,1,0,304
9,12,4,0,-3,1,0,353
9,12,5,0,-3,1,-1,366
9,12,6,0,-3,2,-3,356
9,12,7,0,-3,1,0,376
9,12,8,0,-3,1,-1,335
9,12,9,0,-3,1,-1,360
9,12,10,0,-3,1,-2,331
9,13,1,2,11,1,3,913
9,13,2,2,11,1,1,416
9,13,3,2,11,2,10,375
9,13,4,2,11,2,13,360
9,13,5,2,11,2,11,1233
9,13,6,2,11,2,11,473
9,13,7,2,11,2,11,359
9,13,8,2,11,2,10,383
9,13,9,2,11,2,11,393
9,13,10,2,11,2,10,417
9,14,1,-16,-4,2,-6,945
9,14,2,-16,-4,1,-16,321
9,14,3,-16,-4,2,-5,329
9,14,4,-16,-4,2,-3,327
9,14,5,-16,-4,2,-6,365
9,14,6,-16,-4,2,-5,303
9,14,7,-16,-4,2,-3,359
9,14,8,-16,-4,2,-5,327
9,14,9,-16,-4,2,-5,336
9,14,10,-16,-4,2,-5,360
9,15,1,10,5,2,5,751
9,15,2,10,5,1,8,360
9,15,3,10,5,1,9,429
9,15,4,10,5,1,9,351
9,15,5,10,5,1,10,374
9,15,6,10,5,1,9,392
9,15,7,10,5,1,10,462
9,15,8,10,5,1,12,342
9,15,9,10,5,1,11,360
9,15,10,10,5,1,10,392
9,16,1,-18,-11,2,-11,752
9,16,2,-18,-11,1,-19,336
9,16,3,-18,-11,2,-12,342
9,16,4,-18,-11,2,-10,312
9,16,5,-18,-11,2,-11,356
9,16,6,-18,-11,2,-11,347
9,16,7,-18,-11,2,-10,368
9,16,8,-18,-11,2,-10,368
9,16,9,-18,-11,2,-10,366
9,16,10,-18,-11,2,-12,336
9,17,1,0,13,2,15,504
9,17,2,0,13,1,0,340
9,17,3,0,13,2,12,342
9,17,4,0,13,2,12,337
9,17,5,0,13,2,13,321
9,17,6,0,13,2,13,344
9,17,7,0,13,2,14,327
9,17,8,0,13,2,14,384
9,17,9,0,13,2,15,367
9,17,10,0,13,2,12,352
9,18,1,-6,15,1,-6,951
9,18,2,-6,15,2,15,361
9,18,3,-6,15,2,14,390
9,18,4,-6,15,2,14,433
9,18,5,-6,15,2,15,440
9,18,6,-6,15,2,14,526
9,18,7,-6,15,2,15,452
9,18,8,-6,15,2,18,406
9,18,9,-6,15,2,15,433
9,18,10,-6,15,2,15,441
9,19,1,0,-1,2,0,1032
9,19,2,0,-1,1,2,347
9,19,3,0,-1,1,0,398
9,19,4,0,-1,2,0,365
9,19,5,0,-1,1,0,367
9,19,6,0,-1,2,0,448
9,19,7,0,-1,1,0,461
9,19,8,0,-1,1,-1,344
9,19,9,0,-1,1,-1,408
9,19,10,0,-1,2,-2,378
9,20,1,-1,-3,1,-1,1016
9,20,2,-1,-3,2,-3,391
9,20,3,-1,-3,1,0,465
9,20,4,-1,-3,1,0,368
9,20,5,-1,-3,1,-3,308
9,20,6,-1,-3,1,-1,407
9,20,7,-1,-3,1,0,360
9,20,8,-1,-3,1,-2,401
9,20,9,-1,-3,1,-2,355
9,20,10,-1,-3,1,-1,391
10,1,1,5,-4,1,6,2320
10,1,2,5,-4,1,6,1093
10,1,3,5,-4,1,4,1134
10,1,4,5,-4,2,-4,903
10,1,5,5,-4,1,6,800
10,1,6,5,-4,1,5,839
10,1,7,5,-4,1,4,887
10,1,8,5,-4,1,5,895
10,1,9,5,-4,1,5,831
10,1,10,5,-4,1,6,768
10,2,1,10,2,2,2,2288
10,2,2,10,2,1,11,935
10,2,3,10,2,1,11,887
10,2,4,10,2,1,9,871
10,2,5,10,2,1,11,871
10,2,6,10,2,1,10,791
10,2,7,10,2,1,9,584
10,2,8,10,2,1,9,560
10,2,9,10,2,1,10,519
10,2,10,10,2,1,10,560
10,3,1,10,-8,2,-8,2064
10,3,2,10,-8,1,9,598
10,3,3,10,-8,1,12,534
10,3,4,10,-8,1,11,528
10,3,5,10,-8,1,12,527
10,3,6,10,-8,1,10,576
10,3,7,10,-8,1,10,527
10,3,8,10,-8,1,10,528
10,3,9,10,-8,1,10,511
10,3,10,10,-8,1,9,472
10,4,1,8,0,1,7,1184
10,4,2,8,0,2,0,728
10,4,3,8,0,1,9,527
10,4,4,8,0,1,9,495
10,4,5,8,0,1,8,471
10,4,6,8,0,1,7,471
10,4,7,8,0,1,7,526
10,4,8,8,0,1,10,518
10,4,9,8,0,1,10,512
10,4,10,8,0,1,8,511
10,5,1,6,-3,1,6,1022
10,5,2,6,-3,2,-3,543
10,5,3,6,-3,1,6,453
10,5,4,6,-3,1,6,431
10,5,5,6,-3,1,7,392
10,5,6,6,-3,1,7,431
10,5,7,6,-3,1,9,431
10,5,8,6,-3,1,7,414
10,5,9,6,-3,1,6,504
10,5,10,6,-3,1,7,469
10,6,1,-2,-3,1,-2,1423
10,6,2,-2,-3,2,-3,495
10,6,3,-2,-3,1,-3,567
10,6,4,-2,-3,2,-3,566
10,6,5,-2,-3,2,-4,599
10,6,6,-2,-3,1,0,567
10,6,7,-2,-3,1,-2,503
10,6,8,-2,-3,1,-2,751
10,6,9,-2,-3,2,-3,584
10,6,10,-2,-3,1,-1,632
10,7,1,9,6,1,9,728
10,7,2,9,6,2,5,511
10,7,3,9,6,1,9,495
10,7,4,9,6,1,7,526
10,7,5,9,6,1,9,511
10,7,6,9,6,1,8,536
10,7,7,9,6,1,9,496
10,7,8,9,6,1,8,495
10,7,9,9,6,1,9,551
10,7,10,9,6,1,9,552
10,8,1,6,18,1,7,808
10,8,2,6,18,2,18,479
10,8,3,6,18,2,18,535
10,8,4,6,18,2,18,551
10,8,5,6,18,2,17,560
10,8,6,6,18,2,19,511
10,8,7,6,18,2,19,527
10,8,8,6,18,2,16,496
10,8,9,6,18,2,17,511
10,8,10,6,18,2,19,544
10,9,1,-11,4,2,4,712
10,9,2,-11,4,1,-12,495
10,9,3,-11,4,2,4,471
10,9,4,-11,4,2,3,471
10,9,5,-11,4,2,4,519
10,9,6,-11,4,2,5,503
10,9,7,-11,4,2,3,576
10,9,8,-11,4,2,5,631
10,9,9,-11,4,2,4,640
10,9,10,-11,4,2,4,440
10,10,1,-4,-2,1,-5,1007
10,10,2,-4,-2,2,0,456
10,10,3,-4,-2,2,-1,502
10,10,4,-4,-2,1,-5,518
10,10,5,-4,-2,2,-2,495
10,10,6,-4,-2,2,-3,496
10,10,7,-4,-2,2,0,528
10,10,8,-4,-2,2,-3,608
10,10,9,-4,-2,1,-5,528
10,10,10,-4,-2,2,-2,511
10,11,1,-2,26,2,26,720
10,11,2,-2,26,2,26,953
10,11,3,-2,26,2,27,496
10,11,4,-2,26,2,25,535
10,11,5,-2,26,2,27,560
10,11,6,-2,26,2,26,543
10,11,7,-2,26,2,27,504
10,11,8,-2,26,2,27,497
10,11,9,-2,26,2,25,447
10,11,10,-2,26,2,26,456
10,12,1,-3,-8,2,-7,793
10,12,2,-3,-8,1,-2,511
10,12,3,-3,-8,1,-2,2647
10,12,4,-3,-8,1,-5,647
10,12,5,-3,-8,2,-6,463
10,12,6,-3,-8,1,-4,448
10,12,7,-3,-8,1,-3,431
10,12,8,-3,-8,1,-3,376
10,12,9,-3,-8,1,-4,407
10,12,10,-3,-8,1,-3,408
10,13,1,23,5,1,21,744
10,13,2,23,5,1,23,552
10,13,3,23,5,1,22,623
10,13,4,23,5,1,23,511
10,13,5,23,5,1,22,502
10,13,6,23,5,1,23,576
10,13,7,23,5,1,23,535
10,13,8,23,5,1,22,557
10,13,9,23,5,1,24,536
10,13,10,23,5,1,23,479
10,14,1,-1,-3,1,-2,808
10,14,2,-1,-3,2,-4,391
10,14,3,-1,-3,1,0,391
10,14,4,-1,-3,1,0,398
10,14,5,-1,-3,1,-1,495
10,14,6,-1,-3,1,-1,464
10,14,7,-1,-3,1,-3,455
10,14,8,-1,-3,1,-2,424
10,14,9,-1,-3,1,1,416
10,14,10,-1,-3,1,-2,479
10,15,1,-1,6,1,-1,713
10,15,2,-1,6,2,5,424
10,15,3,-1,6,2,7,392
10,15,4,-1,6,2,4,504
10,15,5,-1,6,2,6,398
10,15,6,-1,6,2,6,431
10,15,7,-1,6,2,6,432
10,15,8,-1,6,2,5,383
10,15,9,-1,6,2,6,367
10,15,10,-1,6,2,7,528
10,16,1,18,4,2,5,968
10,16,2,18,4,1,19,558
10,16,3,18,4,1,19,807
10,16,4,18,4,1,18,527
10,16,5,18,4,1,18,479
10,16,6,18,4,1,20,455
10,16,7,18,4,1,20,454
10,16,8,18,4,1,17,448
10,16,9,18,4,1,17,462
10,16,10,18,4,1,19,496
10,17,1,8,-4,1,8,760
10,17,2,8,-4,2,-5,439
10,17,3,8,-4,1,9,447
10,17,4,8,-4,1,8,438
10,17,5,8,-4,1,8,544
10,17,6,8,-4,1,9,391
10,17,7,8,-4,1,8,534
10,17,8,8,-4,1,7,432
10,17,9,8,-4,1,8,503
10,17,10,8,-4,1,7,464
10,18,1,2,-13,1,1,856
10,18,2,2,-13,2,-14,615
10,18,3,2,-13,1,1,456
10,18,4,2,-13,1,1,416
10,18,5,2,-13,1,2,430
10,18,6,2,-13,1,1,392
10,18,7,2,-13,1,2,351
10,18,8,2,-13,1,3,368
10,18,9,2,-13,1,2,478
10,18,10,2,-13,1,1,336
10,19,1,-6,-6,1,-6,681
10,19,2,-6,-6,2,-7,432
10,19,3,-6,-6,1,-7,495
10,19,4,-6,-6,2,-7,447
10,19,5,-6,-6,1,-6,408
10,19,6,-6,-6,1,-6,635
10,19,7,-6,-6,1,-5,496
10,19,8,-6,-6,1,-6,462
10,19,9,-6,-6,1,-7,480
10,19,10,-6,-6,1,-6,383
10,20,1,-1,-3,1,-1,680
10,20,2,-1,-3,2,-3,393
10,20,3,-1,-3,1,-2,455
10,20,4,-1,-3,1,-1,424
10,20,5,-1,-3,1,-1,399
10,20,6,-1,-3,1,-2,397
10,20,7,-1,-3,1,-1,431
10,20,8,-1,-3,1,-1,382
10,20,9,-1,-3,1,-2,392
10,20,10,-1,-3,1,0,398
11,1,1,-17,-1,2,0,1168
11,1,2,-17,-1,1,-16,616
11,1,3,-17,-1,2,-1,349
11,1,4,-17,-1,2,0,381
11,1,5,-17,-1,2,-1,382
11,1,6,-17,-1,2,0,358
11,1,7,-17,-1,1,-17,334
11,1,8,-17,-1,2,-1,294
11,1,9,-17,-1,2,-1,280
11,1,10,-17,-1,2,-1,320
11,2,1,-5,5,1,-5,817
11,2,2,-5,5,1,-4,375
11,2,3,-5,5,2,4,327
11,2,4,-5,5,2,4,358
11,2,5,-5,5,2,4,369
11,2,6,-5,5,2,5,390
11,2,7,-5,5,2,6,373
11,2,8,-5,5,2,5,398
11,2,9,-5,5,2,2,342
11,2,10,-5,5,2,6,353
11,3,1,-1,2,2,3,519
11,3,2,-1,2,2,3,336
11,3,3,-1,2,2,1,334
11,3,4,-1,2,2,0,369
11,3,5,-1,2,2,2,359
11,3,6,-1,2,2,1,317
11,3,7,-1,2,2,3,345
11,3,8,-1,2,2,3,343
11,3,9,-1,2,2,1,319
11,3,10,-1,2,2,1,337
11,4,1,4,17,2,17,392
11,4,2,4,17,2,16,385
11,4,3,4,17,2,16,381
11,4,4,4,17,2,18,359
11,4,5,4,17,2,17,382
11,4,6,4,17,2,18,377
11,4,7,4,17,2,15,366
11,4,8,4,17,2,17,361
11,4,9,4,17,2,14,381
11,4,10,4,17,2,15,381
11,5,1,3,3,2,2,761
11,5,2,3,3,2,3,289
11,5,3,3,3,2,3,297
11,5,4,3,3,2,4,369
11,5,5,3,3,2,3,495
11,5,6,3,3,2,2,383
11,5,7,3,3,2,3,335
11,5,8,3,3,2,4,328
11,5,9,3,3,2,3,335
11,5,10,3,3,2,2,339
11,6,1,1,6,2,5,553
11,6,2,1,6,2,5,344
11,6,3,1,6,2,6,294
11,6,4,1,6,2,8,335
11,6,5,1,6,2,6,351
11,6,6,1,6,2,6,295
11,6,7,1,6,2,7,322
11,6,8,1,6,2,4,317
11,6,9,1,6,2,6,337
11,6,10,1,6,2,6,302
11,7,1,-6,6,2,5,520
11,7,2,-6,6,2,6,279
11,7,3,-6,6,2,5,304
11,7,4,-6,6,2,6,281
11,7,5,-6,6,2,7,280
11,7,6,-6,6,2,7,286
11,7,7,-6,6,2,8,295
11,7,8,-6,6,2,7,262
11,7,9,-6,6,2,5,280
11,7,10,-6,6,2,8,271
11,8,1,10,2,2,0,577
11,8,2,10,2,2,2,339
11,8,3,10,2,2,2,311
11,8,4,10,2,2,2,263
11,8,5,10,2,2,2,254
11,8,6,10,2,1,9,661
11,8,7,10,2,1,10,360
11,8,8,10,2,1,11,347
11,8,9,10,2,1,10,1820
11,8,10,10,2,1,10,415
11,9,1,14,4,1,13,392
11,9,2,14,4,1,13,384
11,9,3,14,4,1,14,353
11,9,4,14,4,1,13,358
11,9,5,14,4,1,14,336
11,9,6,14,4,1,15,345
11,9,7,14,4,1,13,342
11,9,8,14,4,1,14,335
11,9,9,14,4,1,13,393
11,9,10,14,4,1,14,319
11,10,1,-1,-6,1,-1,385
11,10,2,-1,-6,2,-7,319
11,10,3,-1,-6,1,-1,368
11,10,4,-1,-6,1,-2,343
11,10,5,-1,-6,1,1,327
11,10,6,-1,-6,1,1,352
11,10,7,-1,-6,1,1,304
11,10,8,-1,-6,2,-4,319
11,10,9,-1,-6,1,0,344
11,10,10,-1,-6,1,1,328
11,11,1,-1,-17,2,-18,560
11,11,2,-1,-17,1,1,333
11,11,3,-1,-17,1,-1,327
11,11,4,-1,-17,2,-16,311
11,11,5,-1,-17,1,0,343
11,11,6,-1,-17,1,-2,270
11,11,7,-1,-17,1,0,271
11,11,8,-1,-17,1,-1,319
11,11,9,-1,-17,1,0,278
11,11,10,-1,-17,1,0,429
11,12,1,19,6,1,19,415
11,12,2,19,6,1,19,393
11,12,3,19,6,1,18,365
11,12,4,19,6,1,18,334
11,12,5,19,6,1,19,1159
11,12,6,19,6,1,19,465
11,12,7,19,6,1,19,597
11,12,8,19,6,1,21,766
11,12,9,19,6,1,18,431
11,12,10,19,6,1,17,326
11,13,1,10,-11,1,10,384
11,13,2,10,-11,1,10,349
11,13,3,10,-11,1,10,422
11,13,4,10,-11,1,10,433
11,13,5,10,-11,1,9,7254
11,13,6,10,-11,1,9,351
11,13,7,10,-11,1,9,521
11,13,8,10,-11,1,10,1897
11,13,9,10,-11,1,12,381
11,13,10,10,-11,1,9,367
11,14,1,-3,-7,1,-3,423
11,14,2,-3,-7,2,-6,351
11,14,3,-3,-7,1,-2,353
11,14,4,-3,-7,1,-2,400
11,14,5,-3,-7,2,-8,377
11,14,6,-3,-7,1,-2,369
11,14,7,-3,-7,1,-2,345
11,14,8,-3,-7,1,-3,342
11,14,9,-3,-7,2,-8,385
11,14,10,-3,-7,1,-2,342
11,15,1,-4,3,1,-6,385
11,15,2,-4,3,2,3,358
11,15,3,-4,3,2,1,327
11,15,4,-4,3,2,4,311
11,15,5,-4,3,2,1,302
11,15,6,-4,3,2,4,313
11,15,7,-4,3,2,4,302
11,15,8,-4,3,2,3,313
11,15,9,-4,3,2,3,321
11,15,10,-4,3,2,4,278
11,16,1,-1,-9,2,-9,863
11,16,2,-1,-9,1,-2,335
11,16,3,-1,-9,1,-1,337
11,16,4,-1,-9,2,-9,302
11,16,5,-1,-9,1,-2,351
11,16,6,-1,-9,1,-1,326
11,16,7,-1,-9,1,0,295
11,16,8,-1,-9,1,-2,302
11,16,9,-1,-9,1,-3,287
11,16,10,-1,-9,1,0,303
11,17,1,1,-2,1,1,361
11,17,2,1,-2,2,-3,329
11,17,3,1,-2,1,1,296
11,17,4,1,-2,2,-3,343
11,17,5,1,-2,1,0,337
11,17,6,1,-2,1,0,313
11,17,7,1,-2,2,0,334
11,17,8,1,-2,2,-1,321
11,17,9,1,-2,1,0,313
11,17,10,1,-2,1,0,303
11,18,1,13,9,2,10,544
11,18,2,13,9,1,14,407
11,18,3,13,9,2,9,498
11,18,4,13,9,1,12,377
11,18,5,13,9,1,15,390
11,18,6,13,9,1,13,398
11,18,7,13,9,2,10,392
11,18,8,13,9,1,13,358
11,18,9,13,9,1,12,373
11,18,10,13,9,1,13,406
11,19,1,1,-1,2,-1,496
11,19,2,1,-1,1,1,375
11,19,3,1,-1,2,-1,367
11,19,4,1,-1,1,1,343
11,19,5,1,-1,1,0,334
11,19,6,1,-1,1,-1,349
11,19,7,1,-1,2,-1,390
11,19,8,1,-1,2,-1,371
11,19,9,1,-1,1,3,310
11,19,10,1,-1,1,1,368
11,20,1,-12,-7,1,-11,560
11,20,2,-12,-7,2,-6,389
11,20,3,-12,-7,2,-7,320
11,20,4,-12,-7,1,-12,1542
11,20,5,-12,-7,2,-8,326
11,20,6,-12,-7,2,-6,303
11,20,7,-12,-7,2,-8,390
11,20,8,-12,-7,2,-6,350
11,20,9,-12,-7,2,-7,374
11,20,10,-12,-7,1,-11,319
12,1,1,-9,-5,1,-9,2193
12,1,2,-9,-5,2,-4,705
12,1,3,-9,-5,2,-5,676
12,1,4,-9,-5,1,-11,472
12,1,5,-9,-5,2,-5,488
12,1,6,-9,-5,2,-7,414
12,1,7,-9,-5,2,-6,433
12,1,8,-9,-5,2,-4,513
12,1,9,-9,-5,2,-7,456
12,1,10,-9,-5,2,-6,464
12,2,1,12,0,1,11,752
12,2,2,12,0,2,0,412
12,2,3,12,0,1,14,384
12,2,4,12,0,1,12,416
12,2,5,12,0,1,12,409
12,2,6,12,0,1,12,368
12,2,7,12,0,1,12,324
12,2,8,12,0,1,12,348
12,2,9,12,0,1,13,384
12,2,10,12,0,1,12,445
12,3,1,1,-10,1,-1,1224
12,3,2,1,-10,2,-11,364
12,3,3,1,-10,1,2,400
12,3,4,1,-10,1,2,416
12,3,5,1,-10,1,1,340
12,3,6,1,-10,1,4,336
12,3,7,1,-10,1,1,341
12,3,8,1,-10,1,0,340
12,3,9,1,-10,1,1,300
12,3,10,1,-10,1,0,357
12,4,1,3,4,1,2,749
12,4,2,3,4,2,4,276
12,4,3,3,4,2,3,352
12,4,4,3,4,2,2,384
12,4,5,3,4,1,3,402
12,4,6,3,4,1,4,301
12,4,7,3,4,1,2,336
12,4,8,3,4,2,3,469
12,4,9,3,4,2,4,457
12,4,10,3,4,2,4,524
12,5,1,2,4,1,1,957
12,5,2,2,4,2,2,312
12,5,3,2,4,2,4,316
12,5,4,2,4,1,2,356
12,5,5,2,4,2,6,328
12,5,6,2,4,2,5,324
12,5,7,2,4,2,5,308
12,5,8,2,4,2,2,328
12,5,9,2,4,2,4,368
12,5,10,2,4,2,3,352
12,6,1,8,0,1,9,741
12,6,2,8,0,2,0,312
12,6,3,8,0,1,9,404
12,6,4,8,0,1,9,341
12,6,5,8,0,1,9,312
12,6,6,8,0,1,9,337
12,6,7,8,0,1,8,296
12,6,8,8,0,1,7,348
12,6,9,8,0,1,7,348
12,6,10,8,0,1,8,312
12,7,1,5,-7,1,5,640
12,7,2,5,-7,2,-7,352
12,7,3,5,-7,1,5,348
12,7,4,5,-7,1,5,324
12,7,5,5,-7,1,6,344
12,7,6,5,-7,1,5,312
12,7,7,5,-7,1,4,308
12,7,8,5,-7,1,6,284
12,7,9,5,-7,1,7,332
12,7,10,5,-7,1,6,256
12,8,1,0,-1,1,1,513
12,8,2,0,-1,2,0,308
12,8,3,0,-1,1,2,370
12,8,4,0,-1,2,-1,296
12,8,5,0,-1,1,1,381
12,8,6,0,-1,1,2,408
12,8,7,0,-1,1,1,304
12,8,8,0,-1,1,-2,304
12,8,9,0,-1,1,0,393
12,8,10,0,-1,1,-2,320
12,9,1,-2,-10,2,-11,777
12,9,2,-2,-10,1,-2,412
12,9,3,-2,-10,1,-3,449
12,9,4,-2,-10,1,-4,664
12,9,5,-2,-10,1,-2,348
12,9,6,-2,-10,1,-2,388
12,9,7,-2,-10,1,-2,328
12,9,8,-2,-10,1,-3,380
12,9,9,-2,-10,1,-2,325
12,9,10,-2,-10,1,-1,452
12,10,1,1,-7,1,-1,568
12,10,2,1,-7,2,-7,408
12,10,3,1,-7,1,1,338
12,10,4,1,-7,1,1,300
12,10,5,1,-7,1,1,348
12,10,6,1,-7,1,1,376
12,10,7,1,-7,1,1,341
12,10,8,1,-7,1,0,309
12,10,9,1,-7,1,1,308
12,10,10,1,-7,1,1,312
12,11,1,3,3,1,1,524
12,11,2,3,3,2,5,357
12,11,3,3,3,2,3,300
12,11,4,3,3,2,3,296
12,11,5,3,3,2,3,264
12,11,6,3,3,2,3,244
12,11,7,3,3,2,2,260
12,11,8,3,3,2,4,220
12,11,9,3,3,2,5,220
12,11,10,3,3,2,5,204
12,12,1,-5,7,1,-5,648
12,12,2,-5,7,2,8,377
12,12,3,-5,7,2,7,325
12,12,4,-5,7,2,7,236
12,12,5,-5,7,2,7,228
12,12,6,-5,7,2,7,248
12,12,7,-5,7,2,7,224
12,12,8,-5,7,2,6,240
12,12,9,-5,7,2,7,268
12,12,10,-5,7,2,7,280
12,13,1,2,-3,2,-3,753
12,13,2,2,-3,1,2,285
12,13,3,2,-3,1,0,336
12,13,4,2,-3,1,1,264
12,13,5,2,-3,1,3,261
12,13,6,2,-3,1,2,296
12,13,7,2,-3,1,0,261
12,13,8,2,-3,1,1,276
12,13,9,2,-3,1,3,301
12,13,10,2,-3,1,3,244
12,14,1,4,-4,1,6,400
12,14,2,4,-4,2,-3,288
12,14,3,4,-4,1,3,300
12,14,4,4,-4,1,5,240
12,14,5,4,-4,1,4,240
12,14,6,4,-4,1,3,236
12,14,7,4,-4,1,6,268
12,14,8,4,-4,1,3,253
12,14,9,4,-4,1,4,228
12,14,10,4,-4,1,4,224
12,15,1,-5,14,1,-4,420
12,15,2,-5,14,2,16,300
12,15,3,-5,14,2,15,296
12,15,4,-5,14,2,13,208
12,15,5,-5,14,2,15,244
12,15,6,-5,14,2,15,248
12,15,7,-5,14,2,15,220
12,15,8,-5,14,2,15,220
12,15,9,-5,14,2,15,248
12,15,10,-5,14,2,16,252
12,16,1,-4,6,2,7,645
12,16,2,-4,6,1,-4,293
12,16,3,-4,6,2,7,324
12,16,4,-4,6,2,6,253
12,16,5,-4,6,2,7,216
12,16,6,-4,6,2,5,232
12,16,7,-4,6,2,5,232
12,16,8,-4,6,2,5,232
12,16,9,-4,6,2,5,244
12,16,10,-4,6,2,6,244
12,17,1,-11,17,2,18,1092
12,17,2,-11,17,1,-11,292
12,17,3,-11,17,2,15,296
12,17,4,-11,17,2,19,225
12,17,5,-11,17,2,17,256
12,17,6,-11,17,2,16,233
12,17,7,-11,17,2,17,268
12,17,8,-11,17,2,16,224
12,17,9,-11,17,2,17,252
12,17,10,-11,17,2,15,228
12,18,1,1,4,2,4,678
12,18,2,1,4,1,1,292
12,18,3,1,4,2,3,332
12,18,4,1,4,2,4,425
12,18,5,1,4,2,3,432
12,18,6,1,4,1,1,436
12,18,7,1,4,2,5,309
12,18,8,1,4,2,4,236
12,18,9,1,4,2,4,220
12,18,10,1,4,2,5,228
12,19,1,1,-10,2,-10,700
12,19,2,1,-10,1,2,332
12,19,3,1,-10,1,1,276
12,19,4,1,-10,1,1,216
12,19,5,1,-10,1,1,232
12,19,6,1,-10,1,1,248
12,19,7,1,-10,1,0,228
12,19,8,1,-10,1,2,216
12,19,9,1,-10,1,1,248
12,19,10,1,-10,1,1,256
12,20,1,9,-6,1,9,456
12,20,2,9,-6,2,-5,268
12,20,3,9,-6,1,10,296
12,20,4,9,-6,1,10,208
12,20,5,9,-6,1,10,208
12,20,6,9,-6,1,7,240
12,20,7,9,-6,1,8,224
12,20,8,9,-6,1,10,200
12,20,9,9,-6,1,10,388
12,20,10,9,-6,1,11,297
13,1,1,8,-2,2,0,1018
13,1,2,8,-2,1,7,1077
13,1,3,8,-2,1,9,460
13,1,4,8,-2,1,8,492
13,1,5,8,-2,1,6,391
13,1,6,8,-2,1,8,351
13,1,7,8,-2,1,8,387
13,1,8,8,-2,1,7,345
13,1,9,8,-2,1,8,434
13,1,10,8,-2,1,7,366
13,2,1,-7,7,2,5,1109
13,2,2,-7,7,1,-7,412
13,2,3,-7,7,2,8,294
13,2,4,-7,7,2,7,254
13,2,5,-7,7,2,8,281
13,2,6,-7,7,2,8,317
13,2,7,-7,7,2,7,309
13,2,8,-7,7,2,7,277
13,2,9,-7,7,2,7,350
13,2,10,-7,7,2,7,285
13,3,1,5,-3,2,-3,766
13,3,2,5,-3,1,5,344
13,3,3,5,-3,1,7,287
13,3,4,5,-3,1,5,374
13,3,5,5,-3,1,4,397
13,3,6,5,-3,1,6,367
13,3,7,5,-3,1,4,375
13,3,8,5,-3,1,5,342
13,3,9,5,-3,1,5,381
13,3,10,5,-3,1,4,399
13,4,1,0,3,2,3,806
13,4,2,0,3,1,1,406
13,4,3,0,3,2,4,273
13,4,4,0,3,1,0,407
13,4,5,0,3,2,2,285
13,4,6,0,3,2,2,259
13,4,7,0,3,2,3,135
13,4,8,0,3,2,2,497
13,4,9,0,3,1,-2,977
13,4,10,0,3,2,4,285
13,5,1,5,-8,2,-9,743
13,5,2,5,-8,1,6,349
13,5,3,5,-8,1,7,575
13,5,4,5,-8,1,4,337
13,5,5,5,-8,1,4,368
13,5,6,5,-8,1,4,359
13,5,7,5,-8,1,4,366
13,5,8,5,-8,1,6,356
13,5,9,5,-8,1,4,413
13,5,10,5,-8,1,6,361
13,6,1,9,7,1,8,697
13,6,2,9,7,2,6,291
13,6,3,9,7,1,10,347
13,6,4,9,7,2,7,461
13,6,5,9,7,1,9,342
13,6,6,9,7,1,10,286
13,6,7,9,7,1,10,339
13,6,8,9,7,1,9,383
13,6,9,9,7,1,7,333
13,6,10,9,7,1,11,390
13,7,1,-10,5,1,-9,532
13,7,2,-10,5,2,5,513
13,7,3,-10,5,2,5,347
13,7,4,-10,5,2,4,289
13,7,5,-10,5,2,6,350
13,7,6,-10,5,1,-10,317
13,7,7,-10,5,2,5,269
13,7,8,-10,5,2,6,367
13,7,9,-10,5,2,3,357
13,7,10,-10,5,2,5,350
13,8,1,29,-9,2,-10,496
13,8,2,29,-9,1,30,317
13,8,3,29,-9,1,28,349
13,8,4,29,-9,1,28,301
13,8,5,29,-9,1,28,332
13,8,6,29,-9,1,30,302
13,8,7,29,-9,1,29,235
13,8,8,29,-9,1,29,319
13,8,9,29,-9,1,30,312
13,8,10,29,-9,1,30,342
13,9,1,8,0,1,9,638
13,9,2,8,0,2,1,596
13,9,3,8,0,1,8,466
13,9,4,8,0,1,7,523
13,9,5,8,0,1,10,333
13,9,6,8,0,1,6,317
13,9,7,8,0,1,8,307
13,9,8,8,0,1,8,333
13,9,9,8,0,1,9,332
13,9,10,8,0,1,10,359
13,10,1,-4,-7,1,-4,691
13,10,2,-4,-7,2,-6,299
13,10,3,-4,-7,1,-4,303
13,10,4,-4,-7,2,-10,341
13,10,5,-4,-7,1,-4,318
13,10,6,-4,-7,1,-4,276
13,10,7,-4,-7,1,-6,375
13,10,8,-4,-7,1,-4,341
13,10,9,-4,-7,1,-4,409
13,10,10,-4,-7,1,-3,326
13,11,1,1,1,1,1,469
13,11,2,1,1,2,1,375
13,11,3,1,1,1,1,350
13,11,4,1,1,2,3,847
13,11,5,1,1,2,0,365
13,11,6,1,1,1,3,398
13,11,7,1,1,1,2,357
13,11,8,1,1,1,0,320
13,11,9,1,1,2,2,373
13,11,10,1,1,2,2,349
13,12,1,13,-2,1,12,615
13,12,2,13,-2,2,-2,366
13,12,3,13,-2,1,12,302
13,12,4,13,-2,2,-4,326
13,12,5,13,-2,1,12,292
13,12,6,13,-2,1,14,387
13,12,7,13,-2,1,14,323
13,12,8,13,-2,1,14,302
13,12,9,13,-2,1,13,337
13,12,10,13,-2,1,13,334
13,13,1,-1,-9,1,-2,598
13,13,2,-1,-9,2,-8,292
13,13,3,-1,-9,1,0,457
13,13,4,-1,-9,2,-10,635
13,13,5,-1,-9,1,1,279
13,13,6,-1,-9,1,-1,268
13,13,7,-1,-9,1,0,310
13,13,8,-1,-9,1,-1,305
13,13,9,-1,-9,1,0,300
13,13,10,-1,-9,1,-2,342
13,14,1,21,7,2,7,3421
13,14,2,21,7,1,22,414
13,14,3,21,7,1,22,278
13,14,4,21,7,1,22,282
13,14,5,21,7,1,20,487
13,14,6,21,7,1,21,301
13,14,7,21,7,1,22,690
13,14,8,21,7,1,19,341
13,14,9,21,7,1,21,339
13,14,10,21,7,1,21,284
13,15,1,-7,0,1,-6,419
13,15,2,-7,0,2,-1,307
13,15,3,-7,0,1,-6,334
13,15,4,-7,0,2,-2,295
13,15,5,-7,0,2,1,276
13,15,6,-7,0,2,0,338
13,15,7,-7,0,2,0,285
13,15,8,-7,0,2,0,332
13,15,9,-7,0,2,-1,311
13,15,10,-7,0,2,-1,318
13,16,1,-11,-3,2,-2,438
13,16,2,-11,-3,1,-12,310
13,16,3,-11,-3,2,-2,395
13,16,4,-11,-3,2,-5,317
13,16,5,-11,-3,2,-3,387
13,16,6,-11,-3,2,-4,281
13,16,7,-11,-3,2,-3,308
13,16,8,-11,-3,2,-1,270
13,16,9,-11,-3,2,-3,340
13,16,10,-11,-3,2,-2,310
13,17,1,7,1,2,1,471
13,17,2,7,1,1,8,295
13,17,3,7,1,1,6,277
13,17,4,7,1,1,8,381
13,17,5,7,1,1,8,335
13,17,6,7,1,1,8,332
13,17,7,7,1,1,7,332
13,17,8,7,1,1,7,284
13,17,9,7,1,1,7,335
13,17,10,7,1,1,8,332
13,18,1,-14,1,2,3,1621
13,18,2,-14,1,1,-15,476
13,18,3,-14,1,2,1,303
13,18,4,-14,1,2,1,295
13,18,5,-14,1,2,2,316
13,18,6,-14,1,2,0,300
13,18,7,-14,1,2,3,402
13,18,8,-14,1,2,0,372
13,18,9,-14,1,1,-14,353
13,18,10,-14,1,2,3,291
13,19,1,-3,-6,2,-6,470
13,19,2,-3,-6,1,-1,337
13,19,3,-3,-6,1,-1,645
13,19,4,-3,-6,2,-6,334
13,19,5,-3,-6,1,-4,339
13,19,6,-3,-6,1,-5,365
13,19,7,-3,-6,1,-3,348
13,19,8,-3,-6,1,-1,324
13,19,9,-3,-6,1,-1,380
13,19,10,-3,-6,1,-2,353
13,20,1,-5,-4,1,-6,437
13,20,2,-5,-4,2,-5,288
13,20,3,-5,-4,1,-5,445
13,20,4,-5,-4,2,-4,352
13,20,5,-5,-4,1,-4,429
13,20,6,-5,-4,2,-3,375
13,20,7,-5,-4,2,-3,350
13,20,8,-5,-4,2,-4,382
13,20,9,-5,-4,2,-3,365
13,20,10,-5,-4,2,-2,359
14,1,1,1,-22,1,3,1182
14,1,2,1,-22,1,3,601
14,1,3,1,-22,2,-23,432
14,1,4,1,-22,1,1,423
14,1,5,1,-22,1,2,307
14,1,6,1,-22,1,2,311
14,1,7,1,-22,1,0,314
14,1,8,1,-22,1,1,472
14,1,9,1,-22,1,1,319
14,1,10,1,-22,1,1,292
14,2,1,-2,7,1,-3,590
14,2,2,-2,7,2,6,424
14,2,3,-2,7,2,5,319
14,2,4,-2,7,2,7,334
14,2,5,-2,7,2,8,391
14,2,6,-2,7,2,6,387
14,2,7,-2,7,2,7,367
14,2,8,-2,7,2,6,348
14,2,9,-2,7,2,8,361
14,2,10,-2,7,2,7,402
14,3,1,0,11,2,13,782
14,3,2,0,11,2,11,279
14,3,3,0,11,2,10,312
14,3,4,0,11,2,12,312
14,3,5,0,11,2,10,341
14,3,6,0,11,2,11,330
14,3,7,0,11,2,11,319
14,3,8,0,11,2,9,319
14,3,9,0,11,2,11,352
14,3,10,0,11,2,12,350
14,4,1,8,3,2,3,656
14,4,2,8,3,1,8,440
14,4,3,8,3,1,7,321
14,4,4,8,3,1,7,383
14,4,5,8,3,1,9,355
14,4,6,8,3,1,9,356
14,4,7,8,3,1,8,330
14,4,8,8,3,1,9,424
14,4,9,8,3,1,9,383
14,4,10,8,3,1,8,361
14,5,1,-13,9,2,8,778
14,5,2,-13,9,2,9,388
14,5,3,-13,9,2,10,455
14,5,4,-13,9,2,9,402
14,5,5,-13,9,2,11,368
14,5,6,-13,9,2,9,358
14,5,7,-13,9,2,10,347
14,5,8,-13,9,2,8,360
14,5,9,-13,9,2,8,366
14,5,10,-13,9,2,9,343
14,6,1,-17,7,2,8,372
14,6,2,-17,7,1,-17,356
14,6,3,-17,7,2,6,372
14,6,4,-17,7,2,7,261
14,6,5,-17,7,2,5,322
14,6,6,-17,7,2,6,284
14,6,7,-17,7,2,5,357
14,6,8,-17,7,2,7,313
14,6,9,-17,7,2,7,329
14,6,10,-17,7,2,7,349
14,7,1,-6,-8,1,-6,956
14,7,2,-6,-8,2,-9,347
14,7,3,-6,-8,1,-6,489
14,7,4,-6,-8,1,-7,381
14,7,5,-6,-8,2,-8,320
14,7,6,-6,-8,1,-5,364
14,7,7,-6,-8,2,-10,329
14,7,8,-6,-8,1,-6,362
14,7,9,-6,-8,1,-6,312
14,7,10,-6,-8,1,-6,348
14,8,1,3,3,2,3,442
14,8,2,3,3,1,3,335
14,8,3,3,3,2,3,388
14,8,4,3,3,1,4,363
14,8,5,3,3,2,3,342
14,8,6,3,3,1,4,357
14,8,7,3,3,1,4,349
14,8,8,3,3,1,3,379
14,8,9,3,3,1,2,431
14,8,10,3,3,1,3,418
14,9,1,-3,-7,2,-6,543
14,9,2,-3,-7,1,-3,383
14,9,3,-3,-7,1,-3,367
14,9,4,-3,-7,2,-8,460
14,9,5,-3,-7,1,-2,435
14,9,6,-3,-7,2,-7,403
14,9,7,-3,-7,1,-2,455
14,9,8,-3,-7,1,-3,483
14,9,9,-3,-7,1,-2,360
14,9,10,-3,-7,1,-1,345
14,10,1,1,7,1,1,558
14,10,2,1,7,2,7,363
14,10,3,1,7,1,1,402
14,10,4,1,7,2,8,373
14,10,5,1,7,2,7,367
14,10,6,1,7,2,7,377
14,10,7,1,7,2,8,405
14,10,8,1,7,2,7,389
14,10,9,1,7,2,7,398
14,10,10,1,7,2,10,378
14,11,1,-5,1,2,1,688
14,11,2,-5,1,1,-5,511
14,11,3,-5,1,1,-5,398
14,11,4,-5,1,2,0,371
14,11,5,-5,1,2,0,411
14,11,6,-5,1,2,1,297
14,11,7,-5,1,2,3,335
14,11,8,-5,1,2,1,307
14,11,9,-5,1,2,2,301
14,11,10,-5,1,2,0,316
14,12,1,2,15,2,16,361
14,12,2,2,15,2,17,297
14,12,3,2,15,2,13,343
14,12,4,2,15,2,15,346
14,12,5,2,15,2,16,373
14,12,6,2,15,2,15,361
14,12,7,2,15,2,16,369
14,12,8,2,15,2,13,421
14,12,9,2,15,2,15,380
14,12,10,2,15,2,15,427
14,13,1,-2,8,2,9,398
14,13,2,-2,8,2,7,357
14,13,3,-2,8,2,8,403
14,13,4,-2,8,2,8,394
14,13,5,-2,8,2,7,289
14,13,6,-2,8,2,7,327
14,13,7,-2,8,2,7,367
14,13,8,-2,8,2,8,408
14,13,9,-2,8,2,8,387
14,13,10,-2,8,2,8,399
14,14,1,6,7,2,6,700
14,14,2,6,7,2,7,379
14,14,3,6,7,2,5,378
14,14,4,6,7,2,7,358
14,14,5,6,7,2,8,365
14,14,6,6,7,2,6,364
14,14,7,6,7,2,6,379
14,14,8,6,7,2,8,355
14,14,9,6,7,2,7,359
14,14,10,6,7,2,7,367
14,15,1,-1,1,2,-1,394
14,15,2,-1,1,1,-1,450
14,15,3,-1,1,2,0,382
14,15,4,-1,1,2,1,386
14,15,5,-1,1,2,1,343
14,15,6,-1,1,2,2,354
14,15,7,-1,1,2,4,326
14,15,8,-1,1,2,2,297
14,15,9,-1,1,2,0,298
14,15,10,-1,1,2,1,292
14,16,1,0,-4,2,-3,402
14,16,2,0,-4,1,0,411
14,16,3,0,-4,1,0,345
14,16,4,0,-4,1,-2,327
14,16,5,0,-4,1,0,787
14,16,6,0,-4,1,2,408
14,16,7,0,-4,1,2,475
14,16,8,0,-4,1,0,349
14,16,9,0,-4,1,1,353
14,16,10,0,-4,1,1,367
14,17,1,-6,-7,2,-6,427
14,17,2,-6,-7,1,-7,388
14,17,3,-6,-7,2,-9,373
14,17,4,-6,-7,1,-6,392
14,17,5,-6,-7,2,-6,371
14,17,6,-6,-7,1,-5,380
14,17,7,-6,-7,2,-8,363
14,17,8,-6,-7,1,-5,397
14,17,9,-6,-7,2,-7,380
14,17,10,-6,-7,1,-6,403
14,18,1,4,6,2,5,379
14,18,2,4,6,2,5,368
14,18,3,4,6,2,6,344
14,18,4,4,6,2,6,386
14,18,5,4,6,2,5,382
14,18,6,4,6,2,5,364
14,18,7,4,6,2,5,367
14,18,8,4,6,2,5,345
14,18,9,4,6,2,7,357
14,18,10,4,6,2,7,394
14,19,1,-4,0,2,0,341
14,19,2,-4,0,2,0,458
14,19,3,-4,0,2,0,365
14,19,4,-4,0,2,1,348
14,19,5,-4,0,2,1,348
14,19,6,-4,0,2,0,332
14,19,7,-4,0,2,-1,331
14,19,8,-4,0,2,2,520
14,19,9,-4,0,2,-1,389
14,19,10,-4,0,2,0,478
14,20,1,3,7,2,8,733
14,20,2,3,7,2,8,304
14,20,3,3,7,2,6,489
14,20,4,3,7,2,8,326
14,20,5,3,7,1,2,564
14,20,6,3,7,2,7,355
14,20,7,3,7,2,8,369
14,20,8,3,7,1,3,496
14,20,9,3,7,2,7,366
14,20,10,3,7,2,5,413
15,1,1,20,4,1,20,1289
15,1,2,20,4,2,3,1174
15,1,3,20,4,1,20,1166
15,1,4,20,4,1,21,488
15,1,5,20,4,1,19,886
15,1,6,20,4,1,18,567
15,1,7,20,4,1,19,456
15,1,8,20,4,1,20,711
15,1,9,20,4,1,20,519
15,1,10,20,4,1,20,480
15,2,1,11,-9,1,12,1064
15,2,2,11,-9,2,-11,455
15,2,3,11,-9,1,12,375
15,2,4,11,-9,1,10,525
15,2,5,11,-9,1,11,407
15,2,6,11,-9,1,13,464
15,2,7,11,-9,1,10,408
15,2,8,11,-9,1,11,495
15,2,9,11,-9,1,12,471
15,2,10,11,-9,1,10,423
15,3,1,9,5,1,11,849
15,3,2,9,5,2,6,449
15,3,3,9,5,1,8,438
15,3,4,9,5,2,7,462
15,3,5,9,5,1,8,414
15,3,6,9,5,2,4,440
15,3,7,9,5,1,9,414
15,3,8,9,5,1,9,457
15,3,9,9,5,1,8,428
15,3,10,9,5,1,10,439
15,4,1,-4,4,1,-5,703
15,4,2,-4,4,2,5,480
15,4,3,-4,4,2,3,454
15,4,4,-4,4,2,4,406
15,4,5,-4,4,2,3,430
15,4,6,-4,4,2,3,496
15,4,7,-4,4,2,4,441
15,4,8,-4,4,2,5,432
15,4,9,-4,4,2,2,449
15,4,10,-4,4,2,6,431
15,5,1,-2,23,1,-2,983
15,5,2,-2,23,2,23,440
15,5,3,-2,23,2,22,560
15,5,4,-2,23,2,23,471
15,5,5,-2,23,2,23,448
15,5,6,-2,23,2,22,447
15,5,7,-2,23,2,23,385
15,5,8,-2,23,2,21,562
15,5,9,-2,23,2,23,479
15,5,10,-2,23,2,22,481
15,6,1,1,11,1,0,901
15,6,2,1,11,2,11,408
15,6,3,1,11,2,10,416
15,6,4,1,11,2,11,471
15,6,5,1,11,2,10,415
15,6,6,1,11,2,11,369
15,6,7,1,11,2,11,560
15,6,8,1,11,2,13,408
15,6,9,1,11,2,10,408
15,6,10,1,11,2,10,416
15,7,1,8,13,1,7,896
15,7,2,8,13,2,14,407
15,7,3,8,13,2,13,784
15,7,4,8,13,2,13,425
15,7,5,8,13,2,12,424
15,7,6,8,13,2,12,431
15,7,7,8,13,2,14,429
15,7,8,8,13,2,13,415
15,7,9,8,13,2,13,360
15,7,10,8,13,2,13,400
15,8,1,-3,-9,1,-2,1070
15,8,2,-3,-9,2,-11,349
15,8,3,-3,-9,1,-4,384
15,8,4,-3,-9,2,-9,400
15,8,5,-3,-9,1,-2,375
15,8,6,-3,-9,1,-3,398
15,8,7,-3,-9,1,-2,375
15,8,8,-3,-9,1,-4,376
15,8,9,-3,-9,1,-3,393
15,8,10,-3,-9,1,-3,360
15,9,1,-2,-5,1,-3,610
15,9,2,-2,-5,2,-5,368
15,9,3,-2,-5,1,-3,376
15,9,4,-2,-5,2,-5,392
15,9,5,-2,-5,1,-2,384
15,9,6,-2,-5,1,-2,319
15,9,7,-2,-5,1,-4,302
15,9,8,-2,-5,1,-1,336
15,9,9,-2,-5,1,-4,350
15,9,10,-2,-5,1,-1,341
15,10,1,1,-6,1,0,656
15,10,2,1,-6,2,-6,897
15,10,3,1,-6,1,1,382
15,10,4,1,-6,2,-8,406
15,10,5,1,-6,1,1,391
15,10,6,1,-6,1,1,335
15,10,7,1,-6,1,0,344
15,10,8,1,-6,1,2,400
15,10,9,1,-6,1,0,871
15,10,10,1,-6,1,1,439
15,11,1,-1,8,1,-1,960
15,11,2,-1,8,2,7,423
15,11,3,-1,8,2,9,367
15,11,4,-1,8,2,9,385
15,11,5,-1,8,2,9,368
15,11,6,-1,8,2,8,400
15,11,7,-1,8,2,8,374
15,11,8,-1,8,2,7,361
15,11,9,-1,8,2,8,365
15,11,10,-1,8,2,7,391
15,12,1,16,-2,1,16,1264
15,12,2,16,-2,2,-1,641
15,12,3,16,-2,1,17,361
15,12,4,16,-2,1,15,361
15,12,5,16,-2,1,16,392
15,12,6,16,-2,1,16,383
15,12,7,16,-2,1,16,326
15,12,8,16,-2,1,16,360
15,12,9,16,-2,1,16,366
15,12,10,16,-2,1,17,392
15,13,1,12,-8,1,12,640
15,13,2,12,-8,1,12,560
15,13,3,12,-8,1,11,416
15,13,4,12,-8,1,13,368
15,13,5,12,-8,1,11,368
15,13,6,12,-8,1,13,385
15,13,7,12,-8,1,13,417
15,13,8,12,-8,1,12,390
15,13,9,12,-8,1,14,359
15,13,10,12,-8,1,11,399
15,14,1,14,1,1,15,641
15,14,2,14,1,1,14,353
15,14,3,14,1,1,14,385
15,14,4,14,1,1,13,448
15,14,5,14,1,1,16,398
15,14,6,14,1,1,14,455
15,14,7,14,1,1,13,424
15,14,8,14,1,1,16,607
15,14,9,14,1,1,15,384
15,14,10,14,1,1,13,447
15,15,1,5,1,1,5,976
15,15,2,5,1,2,2,335
15,15,3,5,1,1,5,366
15,15,4,5,1,1,6,430
15,15,5,5,1,1,7,408
15,15,6,5,1,1,5,415
15,15,7,5,1,1,7,495
15,15,8,5,1,1,6,689
15,15,9,5,1,1,4,407
15,15,10,5,1,1,6,392
15,16,1,1,-2,1,1,591
15,16,2,1,-2,2,-2,383
15,16,3,1,-2,1,1,337
15,16,4,1,-2,1,0,320
15,16,5,1,-2,1,1,336
15,16,6,1,-2,1,-1,353
15,16,7,1,-2,1,2,399
15,16,8,1,-2,1,1,361
15,16,9,1,-2,1,2,344
15,16,10,1,-2,1,0,351
15,17,1,-2,14,1,-2,536
15,17,2,-2,14,2,13,368
15,17,3,-2,14,2,14,351
15,17,4,-2,14,2,14,350
15,17,5,-2,14,2,14,328
15,17,6,-2,14,2,14,352
15,17,7,-2,14,2,13,392
15,17,8,-2,14,2,13,368
15,17,9,-2,14,2,12,360
15,17,10,-2,14,2,12,351
15,18,1,2,5,1,2,727
15,18,2,2,5,2,5,344
15,18,3,2,5,2,6,392
15,18,4,2,5,2,4,385
15,18,5,2,5,2,7,448
15,18,6,2,5,2,6,416
15,18,7,2,5,2,4,384
15,18,8,2,5,2,5,448
15,18,9,2,5,1,0,352
15,18,10,2,5,2,7,384
15,19,1,-7,1,1,-5,617
15,19,2,-7,1,2,4,336
15,19,3,-7,1,2,1,320
15,19,4,-7,1,2,2,319
15,19,5,-7,1,2,0,336
15,19,6,-7,1,2,1,328
15,19,7,-7,1,2,0,359
15,19,8,-7,1,2,2,359
15,19,9,-7,1,2,0,337
15,19,10,-7,1,2,1,310
15,20,1,-4,-4,1,-3,744
15,20,2,-4,-4,2,-5,344
15,20,3,-4,-4,1,-2,431
15,20,4,-4,-4,2,-4,359
15,20,5,-4,-4,1,-5,320
15,20,6,-4,-4,1,-3,321
15,20,7,-4,-4,1,-3,295
15,20,8,-4,-4,1,-4,328
15,20,9,-4,-4,1,-4,335
15,20,10,-4,-4,1,-4,345
16,1,1,-3,-22,1,-3,909
16,1,2,-3,-22,2,-23,387
16,1,3,-3,-22,1,-3,347
16,1,4,-3,-22,1,-3,269
16,1,5,-3,-22,2,-21,296
16,1,6,-3,-22,1,-4,248
16,1,7,-3,-22,1,-3,267
16,1,8,-3,-22,1,-5,220
16,1,9,-3,-22,2,-23,271
16,1,10,-3,-22,1,-3,247
16,2,1,0,1,1,1,521
16,2,2,0,1,2,1,237
16,2,3,0,1,2,3,243
16,2,4,0,1,2,1,207
16,2,5,0,1,2,2,253
16,2,6,0,1,1,1,297
16,2,7,0,1,1,0,201
16,2,8,0,1,2,3,278
16,2,9,0,1,2,2,236
16,2,10,0,1,2,1,229
16,3,1,-8,0,1,-7,571
16,3,2,-8,0,2,2,328
16,3,3,-8,0,2,2,260
16,3,4,-8,0,2,-1,269
16,3,5,-8,0,2,-1,263
16,3,6,-8,0,1,-8,279
16,3,7,-8,0,2,2,217
16,3,8,-8,0,2,0,279
16,3,9,-8,0,2,0,292
16,3,10,-8,0,2,0,309
16,4,1,3,0,2,-2,613
16,4,2,3,0,1,3,331
16,4,3,3,0,1,4,296
16,4,4,3,0,1,3,343
16,4,5,3,0,1,3,308
16,4,6,3,0,1,3,317
16,4,7,3,0,1,3,328
16,4,8,3,0,1,2,309
16,4,9,3,0,1,2,373
16,4,10,3,0,1,1,329
16,5,1,11,-6,2,-5,678
16,5,2,11,-6,1,10,339
16,5,3,11,-6,1,11,288
16,5,4,11,-6,1,11,277
16,5,5,11,-6,1,11,288
16,5,6,11,-6,1,12,352
16,5,7,11,-6,1,12,330
16,5,8,11,-6,1,11,324
16,5,9,11,-6,1,12,320
16,5,10,11,-6,1,12,294
16,6,1,9,-7,1,11,508
16,6,2,9,-7,2,-6,284
16,6,3,9,-7,1,10,324
16,6,4,9,-7,2,-6,273
16,6,5,9,-7,1,8,292
16,6,6,9,-7,1,9,247
16,6,7,9,-7,1,10,239
16,6,8,9,-7,1,9,232
16,6,9,9,-7,1,9,241
16,6,10,9,-7,1,10,239
16,7,1,3,-3,1,3,359
16,7,2,3,-3,2,-1,276
16,7,3,3,-3,1,0,310
16,7,4,3,-3,2,-4,243
16,7,5,3,-3,1,1,247
16,7,6,3,-3,1,2,204
16,7,7,3,-3,1,3,199
16,7,8,3,-3,1,3,207
16,7,9,3,-3,1,3,202
16,7,10,3,-3,1,3,198
16,8,1,-7,-2,1,-8,738
16,8,2,-7,-2,2,-1,270
16,8,3,-7,-2,2,-2,282
16,8,4,-7,-2,1,-7,257
16,8,5,-7,-2,2,-3,275
16,8,6,-7,-2,2,-2,231
16,8,7,-7,-2,2,-2,305
16,8,8,-7,-2,2,-1,279
16,8,9,-7,-2,2,-2,347
16,8,10,-7,-2,2,-1,306
16,9,1,13,0,1,12,451
16,9,2,13,0,2,0,327
16,9,3,13,0,1,13,313
16,9,4,13,0,1,14,277
16,9,5,13,0,1,12,286
16,9,6,13,0,1,12,312
16,9,7,13,0,1,12,290
16,9,8,13,0,1,13,297
16,9,9,13,0,1,14,272
16,9,10,13,0,1,14,303
16,10,1,-2,9,1,-1,465
16,10,2,-2,9,2,12,279
16,10,3,-2,9,2,10,289
16,10,4,-2,9,2,9,259
16,10,5,-2,9,2,10,272
16,10,6,-2,9,2,9,285
16,10,7,-2,9,2,8,249
16,10,8,-2,9,2,8,259
16,10,9,-2,9,2,9,223
16,10,10,-2,9,2,8,248
16,11,1,-8,1,1,-8,1399
16,11,2,-8,1,2,-1,387
16,11,3,-8,1,2,1,249
16,11,4,-8,1,2,1,274
16,11,5,-8,1,2,2,311
16,11,6,-8,1,2,3,288
16,11,7,-8,1,2,-2,296
16,11,8,-8,1,2,1,302
16,11,9,-8,1,2,0,327
16,11,10,-8,1,2,0,332
16,12,1,7,15,2,15,361
16,12,2,7,15,1,8,317
16,12,3,7,15,2,14,357
16,12,4,7,15,1,7,290
16,12,5,7,15,2,15,291
16,12,6,7,15,2,14,254
16,12,7,7,15,2,14,269
16,12,8,7,15,2,15,256
16,12,9,7,15,2,16,241
16,12,10,7,15,2,17,248
16,13,1,-8,2,2,4,327
16,13,2,-8,2,1,-7,337
16,13,3,-8,2,2,2,294
16,13,4,-8,2,2,2,208
16,13,5,-8,2,2,4,245
16,13,6,-8,2,2,2,252
16,13,7,-8,2,2,1,280
16,13,8,-8,2,2,1,277
16,13,9,-8,2,2,1,264
16,13,10,-8,2,2,1,237
16,14,1,0,12,1,0,671
16,14,2,0,12,2,12,284
16,14,3,0,12,2,10,234
16,14,4,0,12,2,11,220
16,14,5,0,12,2,13,249
16,14,6,0,12,2,10,232
16,14,7,0,12,2,12,231
16,14,8,0,12,2,13,231
16,14,9,0,12,2,12,242
16,14,10,0,12,2,12,231
16,15,1,4,-3,1,3,417
16,15,2,4,-3,2,-3,257
16,15,3,4,-3,1,5,330
16,15,4,4,-3,2,-3,270
16,15,5,4,-3,1,4,327
16,15,6,4,-3,1,4,195
16,15,7,4,-3,1,0,245
16,15,8,4,-3,1,4,238
16,15,9,4,-3,1,4,217
16,15,10,4,-3,1,5,301
16,16,1,6,-7,1,5,411
16,16,2,6,-7,2,-7,253
16,16,3,6,-7,1,7,270
16,16,4,6,-7,1,6,185
16,16,5,6,-7,1,6,217
16,16,6,6,-7,1,7,259
16,16,7,6,-7,1,6,234
16,16,8,6,-7,1,5,252
16,16,9,6,-7,1,7,272
16,16,10,6,-7,1,7,222
16,17,1,-3,0,1,-2,570
16,17,2,-3,0,2,-1,308
16,17,3,-3,0,1,-4,333
16,17,4,-3,0,2,0,250
16,17,5,-3,0,2,1,215
16,17,6,-3,0,2,1,213
16,17,7,-3,0,2,1,244
16,17,8,-3,0,2,0,259
16,17,9,-3,0,2,0,264
16,17,10,-3,0,2,0,255
16,18,1,4,1,2,0,351
16,18,2,4,1,1,4,275
16,18,3,4,1,1,5,220
16,18,4,4,1,1,5,257
16,18,5,4,1,1,4,247
16,18,6,4,1,1,3,238
16,18,7,4,1,1,4,262
16,18,8,4,1,1,4,259
16,18,9,4,1,1,3,262
16,18,10,4,1,1,1,310
16,19,1,-4,-12,1,-4,343
16,19,2,-4,-12,2,-13,293
16,19,3,-4,-12,1,-6,288
16,19,4,-4,-12,2,-12,263
16,19,5,-4,-12,1,-4,277
16,19,6,-4,-12,1,-3,265
16,19,7,-4,-12,1,-4,224
16,19,8,-4,-12,1,-3,244
16,19,9,-4,-12,1,-4,260
16,19,10,-4,-12,1,-5,260
16,20,1,-17,5,1,-17,317
16,20,2,-17,5,2,5,697
16,20,3,-17,5,2,4,215
16,20,4,-17,5,2,6,222
16,20,5,-17,5,2,6,243
16,20,6,-17,5,2,6,213
16,20,7,-17,5,2,4,216
16,20,8,-17,5,2,4,246
16,20,9,-17,5,2,6,257
16,20,10,-17,5,2,4,277
17,1,1,6,8,1,5,1445
17,1,2,6,8,1,4,556
17,1,3,6,8,2,7,383
17,1,4,6,8,2,6,463
17,1,5,6,8,2,5,431
17,1,6,6,8,2,8,911
17,1,7,6,8,2,8,392
17,1,8,6,8,1,5,558
17,1,9,6,8,2,8,408
17,1,10,6,8,2,7,319
17,2,1,11,-8,2,-9,588
17,2,2,11,-8,1,11,609
17,2,3,11,-8,1,11,463
17,2,4,11,-8,1,12,599
17,2,5,11,-8,1,10,415
17,2,6,11,-8,1,12,424
17,2,7,11,-8,1,10,431
17,2,8,11,-8,1,8,423
17,2,9,11,-8,1,10,399
17,2,10,11,-8,1,10,383
17,3,1,0,-11,2,-13,517
17,3,2,0,-11,1,2,431
17,3,3,0,-11,1,0,415
17,3,4,0,-11,1,-1,381
17,3,5,0,-11,2,-12,488
17,3,6,0,-11,1,1,461
17,3,7,0,-11,1,1,486
17,3,8,0,-11,1,1,359
17,3,9,0,-11,1,0,335
17,3,10,0,-11,1,0,415
17,4,1,-6,2,2,2,549
17,4,2,-6,2,1,-6,473
17,4,3,-6,2,2,0,398
17,4,4,-6,2,2,1,335
17,4,5,-6,2,2,2,311
17,4,6,-6,2,2,2,360
17,4,7,-6,2,2,2,335
17,4,8,-6,2,2,4,368
17,4,9,-6,2,2,2,759
17,4,10,-6,2,2,1,304
17,5,1,0,2,2,1,603
17,5,2,0,2,1,0,399
17,5,3,0,2,1,-1,575
17,5,4,0,2,2,3,328
17,5,5,0,2,2,2,280
17,5,6,0,2,2,1,350
17,5,7,0,2,2,1,304
17,5,8,0,2,2,2,287
17,5,9,0,2,2,2,303
17,5,10,0,2,2,1,383
17,6,1,-10,-7,2,-8,596
17,6,2,-10,-7,1,-9,320
17,6,3,-10,-7,2,-6,319
17,6,4,-10,-7,2,-7,351
17,6,5,-10,-7,2,-7,367
17,6,6,-10,-7,2,-5,335
17,6,7,-10,-7,2,-6,294
17,6,8,-10,-7,2,-8,374
17,6,9,-10,-7,2,-7,359
17,6,10,-10,-7,2,-7,360
17,7,1,-14,8,2,8,567
17,7,2,-14,8,1,-14,336
17,7,3,-14,8,2,7,287
17,7,4,-14,8,2,9,342
17,7,5,-14,8,2,8,599
17,7,6,-14,8,2,10,320
17,7,7,-14,8,2,7,367
17,7,8,-14,8,2,7,359
17,7,9,-14,8,2,9,327
17,7,10,-14,8,2,9,369
17,8,1,2,-7,2,-7,573
17,8,2,2,-7,1,1,391
17,8,3,2,-7,1,2,407
17,8,4,2,-7,1,2,367
17,8,5,2,-7,1,3,359
17,8,6,2,-7,1,3,351
17,8,7,2,-7,1,0,391
17,8,8,2,-7,1,2,383
17,8,9,2,-7,1,4,399
17,8,10,2,-7,1,2,368
17,9,1,4,10,2,11,437
17,9,2,4,10,1,5,398
17,9,3,4,10,2,11,399
17,9,4,4,10,2,9,367
17,9,5,4,10,2,9,320
17,9,6,4,10,2,11,364
17,9,7,4,10,2,12,327
17,9,8,4,10,2,9,312
17,9,9,4,10,1,2,312
17,9,10,4,10,2,10,358
17,10,1,1,15,2,15,445
17,10,2,1,15,1,2,975
17,10,3,1,15,2,16,367
17,10,4,1,15,2,15,319
17,10,5,1,15,2,14,335
17,10,6,1,15,2,16,335
17,10,7,1,15,2,14,439
17,10,8,1,15,2,15,399
17,10,9,1,15,2,16,310
17,10,10,1,15,2,15,407
17,11,1,-5,8,2,8,443
17,11,2,-5,8,1,-6,375
17,11,3,-5,8,2,8,375
17,11,4,-5,8,2,9,384
17,11,5,-5,8,2,8,447
17,11,6,-5,8,2,8,366
17,11,7,-5,8,2,7,360
17,11,8,-5,8,2,9,391
17,11,9,-5,8,2,8,368
17,11,10,-5,8,2,10,392
17,12,1,17,-11,2,-12,404
17,12,2,17,-11,1,19,448
17,12,3,17,-11,1,16,295
17,12,4,17,-11,1,17,383
17,12,5,17,-11,1,16,511
17,12,6,17,-11,1,16,383
17,12,7,17,-11,1,17,415
17,12,8,17,-11,1,17,429
17,12,9,17,-11,1,18,398
17,12,10,17,-11,1,18,360
17,13,1,-3,-10,2,-10,446
17,13,2,-3,-10,1,-2,319
17,13,3,-3,-10,1,-2,414
17,13,4,-3,-10,1,-4,334
17,13,5,-3,-10,1,-3,335
17,13,6,-3,-10,1,-3,376
17,13,7,-3,-10,1,-3,375
17,13,8,-3,-10,1,-2,383
17,13,9,-3,-10,1,-4,311
17,13,10,-3,-10,1,-2,383
17,14,1,-14,6,2,6,470
17,14,2,-14,6,1,-14,382
17,14,3,-14,6,2,6,392
17,14,4,-14,6,2,6,327
17,14,5,-14,6,2,7,319
17,14,6,-14,6,2,5,271
17,14,7,-14,6,2,6,343
17,14,8,-14,6,2,7,295
17,14,9,-14,6,2,4,903
17,14,10,-14,6,2,7,346
17,15,1,4,1,2,0,429
17,15,2,4,1,1,6,326
17,15,3,4,1,1,2,303
17,15,4,4,1,1,6,327
17,15,5,4,1,1,2,816
17,15,6,4,1,1,6,439
17,15,7,4,1,1,5,375
17,15,8,4,1,1,5,303
17,15,9,4,1,1,4,367
17,15,10,4,1,1,4,415
17,16,1,10,7,2,7,533
17,16,2,10,7,1,9,343
17,16,3,10,7,1,11,344
17,16,4,10,7,1,10,408
17,16,5,10,7,1,9,351
17,16,6,10,7,1,9,401
17,16,7,10,7,1,10,351
17,16,8,10,7,1,10,526
17,16,9,10,7,1,11,431
17,16,10,10,7,1,11,383
17,17,1,2,-15,2,-15,491
17,17,2,2,-15,1,1,496
17,17,3,2,-15,1,1,293
17,17,4,2,-15,1,2,392
17,17,5,2,-15,1,3,541
17,17,6,2,-15,1,3,383
17,17,7,2,-15,1,1,383
17,17,8,2,-15,1,2,431
17,17,9,2,-15,1,2,415
17,17,10,2,-15,1,2,407
17,18,1,-4,-6,2,-6,397
17,18,2,-4,-6,1,-4,407
17,18,3,-4,-6,1,-2,415
17,18,4,-4,-6,1,-4,367
17,18,5,-4,-6,1,-3,854
17,18,6,-4,-6,1,-4,335
17,18,7,-4,-6,1,-3,383
17,18,8,-4,-6,1,-4,575
17,18,9,-4,-6,1,-5,334
17,18,10,-4,-6,1,-4,415
17,19,1,3,2,2,2,427
17,19,2,3,2,2,3,535
17,19,3,3,2,1,1,351
17,19,4,3,2,1,2,487
17,19,5,3,2,2,2,319
17,19,6,3,2,2,2,527
17,19,7,3,2,2,2,407
17,19,8,3,2,2,3,471
17,19,9,3,2,2,2,406
17,19,10,3,2,2,1,361
17,20,1,4,2,2,0,1316
17,20,2,4,2,1,3,615
17,20,3,4,2,1,5,456
17,20,4,4,2,1,3,360
17,20,5,4,2,1,5,463
17,20,6,4,2,1,2,478
17,20,7,4,2,1,3,775
17,20,8,4,2,1,6,423
17,20,9,4,2,1,5,632
17,20,10,4,2,1,4,511
18,1,1,-7,8,1,-6,1215
18,1,2,-7,8,2,9,763
18,1,3,-7,8,2,7,591
18,1,4,-7,8,1,-8,832
18,1,5,-7,8,2,8,537
18,1,6,-7,8,2,8,502
18,1,7,-7,8,2,8,536
18,1,8,-7,8,2,6,472
18,1,9,-7,8,2,9,479
18,1,10,-7,8,2,8,528
18,2,1,-6,3,2,1,1169
18,2,2,-6,3,1,-7,528
18,2,3,-6,3,1,-6,486
18,2,4,-6,3,2,5,519
18,2,5,-6,3,2,4,447
18,2,6,-6,3,2,4,471
18,2,7,-6,3,2,2,378
18,2,8,-6,3,1,-7,470
18,2,9,-6,3,2,1,383
18,2,10,-6,3,2,3,392
18,3,1,4,-6,2,-6,225
18,3,2,4,-6,1,4,432
18,3,3,4,-6,1,4,454
18,3,4,4,-6,1,4,413
18,3,5,4,-6,1,3,463
18,3,6,4,-6,1,4,603
18,3,7,4,-6,1,3,400
18,3,8,4,-6,1,2,431
18,3,9,4,-6,1,4,432
18,3,10,4,-6,1,2,543
18,4,1,-7,13,2,13,992
18,4,2,-7,13,1,-7,488
18,4,3,-7,13,2,12,432
18,4,4,-7,13,2,12,383
18,4,5,-7,13,2,12,416
18,4,6,-7,13,2,13,448
18,4,7,-7,13,2,12,631
18,4,8,-7,13,2,13,1592
18,4,9,-7,13,2,14,646
18,4,10,-7,13,2,13,487
18,5,1,9,0,1,8,1000
18,5,2,9,0,2,1,472
18,5,3,9,0,2,-1,439
18,5,4,9,0,1,9,454
18,5,5,9,0,1,9,358
18,5,6,9,0,1,8,438
18,5,7,9,0,1,9,432
18,5,8,9,0,1,9,416
18,5,9,9,0,1,10,406
18,5,10,9,0,1,8,413
18,6,1,8,-3,1,8,984
18,6,2,8,-3,2,-3,549
18,6,3,8,-3,1,9,473
18,6,4,8,-3,1,8,393
18,6,5,8,-3,1,7,400
18,6,6,8,-3,1,10,470
18,6,7,8,-3,1,6,494
18,6,8,8,-3,1,8,438
18,6,9,8,-3,1,8,462
18,6,10,8,-3,1,8,496
18,7,1,1,10,2,9,713
18,7,2,1,10,1,2,503
18,7,3,1,10,1,1,390
18,7,4,1,10,2,9,776
18,7,5,1,10,2,11,416
18,7,6,1,10,2,10,440
18,7,7,1,10,2,10,374
18,7,8,1,10,2,12,404
18,7,9,1,10,2,10,392
18,7,10,1,10,2,9,374
18,8,1,-4,-5,2,-7,759
18,8,2,-4,-5,1,-4,543
18,8,3,-4,-5,2,-4,511
18,8,4,-4,-5,1,-4,422
18,8,5,-4,-5,1,-5,471
18,8,6,-4,-5,2,-6,463
18,8,7,-4,-5,2,-6,462
18,8,8,-4,-5,1,-5,448
18,8,9,-4,-5,1,-3,455
18,8,10,-4,-5,1,-4,438
18,9,1,-2,3,1,-1,951
18,9,2,-2,3,2,3,592
18,9,3,-2,3,2,2,384
18,9,4,-2,3,2,2,408
18,9,5,-2,3,2,3,398
18,9,6,-2,3,2,3,406
18,9,7,-2,3,2,2,432
18,9,8,-2,3,2,3,416
18,9,9,-2,3,2,1,391
18,9,10,-2,3,2,2,397
18,10,1,5,8,2,7,872
18,10,2,5,8,2,7,494
18,10,3,5,8,1,5,463
18,10,4,5,8,1,4,407
18,10,5,5,8,1,5,438
18,10,6,5,8,2,7,485
18,10,7,5,8,2,8,406
18,10,8,5,8,2,10,397
18,10,9,5,8,2,10,400
18,10,10,5,8,2,9,407
18,11,1,-3,10,2,12,688
18,11,2,-3,10,1,-3,527
18,11,3,-3,10,2,9,496
18,11,4,-3,10,2,10,374
18,11,5,-3,10,2,10,399
18,11,6,-3,10,2,9,424
18,11,7,-3,10,2,10,383
18,11,8,-3,10,2,10,407
18,11,9,-3,10,2,9,392
18,11,10,-3,10,2,10,383
18,12,1,2,-5,2,-7,800
18,12,2,2,-5,1,2,520
18,12,3,2,-5,1,2,391
18,12,4,2,-5,1,2,416
18,12,5,2,-5,1,4,423
18,12,6,2,-5,1,2,425
18,12,7,2,-5,1,1,419
18,12,8,2,-5,1,0,430
18,12,9,2,-5,1,0,407
18,12,10,2,-5,2,-5,575
18,13,1,6,8,2,7,832
18,13,2,6,8,1,6,448
18,13,3,6,8,1,5,479
18,13,4,6,8,2,8,415
18,13,5,6,8,2,8,325
18,13,6,6,8,2,8,344
18,13,7,6,8,2,9,368
18,13,8,6,8,1,4,574
18,13,9,6,8,2,8,414
18,13,10,6,8,2,8,360
18,14,1,-11,-14,2,-15,601
18,14,2,-11,-14,1,-11,521
18,14,3,-11,-14,1,-11,446
18,14,4,-11,-14,2,-14,392
18,14,5,-11,-14,1,-11,414
18,14,6,-11,-14,1,-11,359
18,14,7,-11,-14,1,-12,413
18,14,8,-11,-14,2,-14,431
18,14,9,-11,-14,1,-11,376
18,14,10,-11,-14,1,-12,464
18,15,1,-5,-7,2,-6,664
18,15,2,-5,-7,1,-5,454
18,15,3,-5,-7,2,-8,663
18,15,4,-5,-7,1,-5,462
18,15,5,-5,-7,1,-5,374
18,15,6,-5,-7,1,-5,366
18,15,7,-5,-7,1,-4,440
18,15,8,-5,-7,1,-5,417
18,15,9,-5,-7,1,-3,416
18,15,10,-5,-7,1,-5,422
18,16,1,2,1,2,-1,791
18,16,2,2,1,1,2,494
18,16,3,2,1,1,3,383
18,16,4,2,1,1,1,351
18,16,5,2,1,1,4,352
18,16,6,2,1,1,2,357
18,16,7,2,1,1,2,855
18,16,8,2,1,1,2,383
18,16,9,2,1,1,0,381
18,16,10,2,1,1,3,438
18,17,1,-1,12,2,12,840
18,17,2,-1,12,2,13,407
18,17,3,-1,12,2,13,318
18,17,4,-1,12,1,-1,447
18,17,5,-1,12,2,12,447
18,17,6,-1,12,2,14,379
18,17,7,-1,12,2,12,391
18,17,8,-1,12,2,13,374
18,17,9,-1,12,2,13,382
18,17,10,-1,12,2,11,432
18,18,1,-2,6,2,6,632
18,18,2,-2,6,1,-3,520
18,18,3,-2,6,2,5,502
18,18,4,-2,6,2,7,343
18,18,5,-2,6,2,6,374
18,18,6,-2,6,2,5,390
18,18,7,-2,6,2,7,400
18,18,8,-2,6,2,5,439
18,18,9,-2,6,2,7,496
18,18,10,-2,6,2,6,464
18,19,1,7,-1,1,6,952
18,19,2,7,-1,2,-2,471
18,19,3,7,-1,1,8,446
18,19,4,7,-1,1,7,389
18,19,5,7,-1,1,5,440
18,19,6,7,-1,1,5,502
18,19,7,7,-1,1,6,496
18,19,8,7,-1,1,6,399
18,19,9,7,-1,1,6,551
18,19,10,7,-1,1,7,400
18,20,1,14,6,2,6,832
18,20,2,14,6,1,14,566
18,20,3,14,6,1,13,431
18,20,4,14,6,1,15,400
18,20,5,14,6,1,14,374
18,20,6,14,6,1,13,454
18,20,7,14,6,1,14,485
18,20,8,14,6,1,15,455
18,20,9,14,6,1,15,464
18,20,10,14,6,1,15,1022
19,1,1,19,2,1,21,2693
19,1,2,19,2,2,2,1079
19,1,3,19,2,1,20,603
19,1,4,19,2,1,20,781
19,1,5,19,2,1,20,1221
19,1,6,19,2,1,21,663
19,1,7,19,2,1,20,503
19,1,8,19,2,1,19,527
19,1,9,19,2,1,18,579
19,1,10,19,2,2,1,634
19,2,1,-4,2,1,-4,843
19,2,2,-4,2,2,3,377
19,2,3,-4,2,2,2,392
19,2,4,-4,2,2,3,533
19,2,5,-4,2,2,0,458
19,2,6,-4,2,1,-4,364
19,2,7,-4,2,2,2,355
19,2,8,-4,2,2,3,347
19,2,9,-4,2,2,1,387
19,2,10,-4,2,2,3,410
19,3,1,3,0,2,-2,798
19,3,2,3,0,1,3,372
19,3,3,3,0,1,3,480
19,3,4,3,0,1,2,370
19,3,5,3,0,1,3,401
19,3,6,3,0,1,5,371
19,3,7,3,0,1,3,649
19,3,8,3,0,1,4,540
19,3,9,3,0,1,2,410
19,3,10,3,0,2,2,425
19,4,1,1,-4,1,1,842
19,4,2,1,-4,2,-4,392
19,4,3,1,-4,1,2,409
19,4,4,1,-4,1,1,478
19,4,5,1,-4,1,2,1137
19,4,6,1,-4,2,-3,426
19,4,7,1,-4,1,0,1108
19,4,8,1,-4,1,3,1038
19,4,9,1,-4,1,-1,403
19,4,10,1,-4,2,-4,650
19,5,1,-2,-9,1,-2,612
19,5,2,-2,-9,2,-8,400
19,5,3,-2,-9,1,-2,464
19,5,4,-2,-9,1,-4,1075
19,5,5,-2,-9,2,-9,419
19,5,6,-2,-9,1,0,403
19,5,7,-2,-9,1,-3,455
19,5,8,-2,-9,1,-3,439
19,5,9,-2,-9,1,-2,564
19,5,10,-2,-9,1,-3,362
19,6,1,-4,19,2,20,617
19,6,2,-4,19,1,-4,426
19,6,3,-4,19,2,18,363
19,6,4,-4,19,2,20,395
19,6,5,-4,19,2,20,418
19,6,6,-4,19,2,20,412
19,6,7,-4,19,2,20,386
19,6,8,-4,19,2,19,362
19,6,9,-4,19,2,22,479
19,6,10,-4,19,2,20,431
19,7,1,-1,-5,2,-5,704
19,7,2,-1,-5,1,-1,402
19,7,3,-1,-5,1,-1,379
19,7,4,-1,-5,2,-7,345
19,7,5,-1,-5,1,0,377
19,7,6,-1,-5,1,0,369
19,7,7,-1,-5,1,-1,380
19,7,8,-1,-5,1,0,571
19,7,9,-1,-5,1,-2,417
19,7,10,-1,-5,2,-5,515
19,8,1,-9,-5,2,-4,610
19,8,2,-9,-5,1,-9,1436
19,8,3,-9,-5,2,-6,440
19,8,4,-9,-5,1,-11,418
19,8,5,-9,-5,2,-5,355
19,8,6,-9,-5,2,-4,325
19,8,7,-9,-5,2,-6,357
19,8,8,-9,-5,2,-4,341
19,8,9,-9,-5,2,-5,378
19,8,10,-9,-5,2,-5,340
19,9,1,1,1,2,0,524
19,9,2,1,1,1,3,473
19,9,3,1,1,1,1,372
19,9,4,1,1,2,0,348
19,9,5,1,1,1,2,480
19,9,6,1,1,2,2,393
19,9,7,1,1,2,1,616
19,9,8,1,1,1,0,393
19,9,9,1,1,2,2,435
19,9,10,1,1,1,1,456
19,10,1,1,3,2,4,580
19,10,2,1,3,1,1,393
19,10,3,1,3,2,4,393
19,10,4,1,3,1,1,393
19,10,5,1,3,2,4,410
19,10,6,1,3,2,2,377
19,10,7,1,3,1,1,541
19,10,8,1,3,2,3,362
19,10,9,1,3,2,3,372
19,10,10,1,3,1,1,445
19,11,1,5,-8,2,-7,746
19,11,2,5,-8,1,6,365
19,11,3,5,-8,1,5,362
19,11,4,5,-8,1,4,377
19,11,5,5,-8,1,6,520
19,11,6,5,-8,1,4,450
19,11,7,5,-8,1,5,626
19,11,8,5,-8,1,4,376
19,11,9,5,-8,1,5,417
19,11,10,5,-8,1,3,462
19,12,1,-21,10,2,10,543
19,12,2,-21,10,1,-21,558
19,12,3,-21,10,2,8,402
19,12,4,-21,10,2,10,373
19,12,5,-21,10,2,8,377
19,12,6,-21,10,2,9,424
19,12,7,-21,10,2,8,371
19,12,8,-21,10,2,10,587
19,12,9,-21,10,2,10,394
19,12,10,-21,10,2,10,392
19,13,1,-9,-1,1,-9,730
19,13,2,-9,-1,2,-1,339
19,13,3,-9,-1,2,-1,463
19,13,4,-9,-1,1,-8,433
19,13,5,-9,-1,2,-1,340
19,13,6,-9,-1,2,-1,325
19,13,7,-9,-1,2,-1,377
19,13,8,-9,-1,2,-3,410
19,13,9,-9,-1,1,-8,551
19,13,10,-9,-1,2,-1,355
19,14,1,2,-3,2,-3,518
19,14,2,2,-3,1,1,371
19,14,3,2,-3,1,2,397
19,14,4,2,-3,1,2,356
19,14,5,2,-3,1,2,356
19,14,6,2,-3,1,3,392
19,14,7,2,-3,1,3,367
19,14,8,2,-3,1,2,355
19,14,9,2,-3,1,2,418
19,14,10,2,-3,1,1,439
19,15,1,-19,-6,2,-7,549
19,15,2,-19,-6,1,-18,364
19,15,3,-19,-6,2,-6,363
19,15,4,-19,-6,2,-6,355
19,15,5,-19,-6,1,-20,368
19,15,6,-19,-6,2,-7,339
19,15,7,-19,-6,2,-5,380
19,15,8,-19,-6,2,-6,347
19,15,9,-19,-6,2,-6,366
19,15,10,-19,-6,2,-7,395
19,16,1,-5,-2,2,-2,573
19,16,2,-5,-2,1,-4,347
19,16,3,-5,-2,2,-2,365
19,16,4,-5,-2,1,-3,371
19,16,5,-5,-2,2,-2,379
19,16,6,-5,-2,1,-6,376
19,16,7,-5,-2,2,-4,396
19,16,8,-5,-2,2,-3,356
19,16,9,-5,-2,2,-3,373
19,16,10,-5,-2,2,-2,379
19,17,1,-3,-3,2,-2,597
19,17,2,-3,-3,1,-3,348
19,17,3,-3,-3,2,-2,386
19,17,4,-3,-3,1,-2,411
19,17,5,-3,-3,2,-3,348
19,17,6,-3,-3,1,-5,358
19,17,7,-3,-3,2,-4,330
19,17,8,-3,-3,2,-3,371
19,17,9,-3,-3,2,-3,324
19,17,10,-3,-3,2,-1,361
19,18,1,1,-2,2,-2,705
19,18,2,1,-2,1,2,329
19,18,3,1,-2,1,2,358
19,18,4,1,-2,1,2,363
19,18,5,1,-2,1,0,371
19,18,6,1,-2,2,-2,533
19,18,7,1,-2,1,1,346
19,18,8,1,-2,1,1,433
19,18,9,1,-2,1,2,325
19,18,10,1,-2,1,0,308
19,19,1,7,14,1,7,537
19,19,2,7,14,2,12,416
19,19,3,7,14,2,13,356
19,19,4,7,14,2,11,378
19,19,5,7,14,1,5,743
19,19,6,7,14,2,14,361
19,19,7,7,14,2,13,365
19,19,8,7,14,2,15,347
19,19,9,7,14,2,15,342
19,19,10,7,14,2,13,440
19,20,1,-1,-4,2,-6,456
19,20,2,-1,-4,1,-3,375
19,20,3,-1,-4,1,-1,704
19,20,4,-1,-4,2,-3,346
19,20,5,-1,-4,1,-2,331
19,20,6,-1,-4,2,-4,393
19,20,7,-1,-4,1,-1,376
19,20,8,-1,-4,2,-3,487
19,20,9,-1,-4,1,-1,388
19,20,10,-1,-4,1,-1,355
20,1,1,-1,6,2,6,986
20,1,2,-1,6,1,-2,413
20,1,3,-1,6,2,5,374
20,1,4,-1,6,2,5,250
20,1,5,-1,6,2,7,258
20,1,6,-1,6,2,6,227
20,1,7,-1,6,2,7,307
20,1,8,-1,6,2,6,252
20,1,9,-1,6,2,5,247
20,1,10,-1,6,2,5,218
20,2,1,4,8,1,5,407
20,2,2,4,8,2,8,262
20,2,3,4,8,2,9,256
20,2,4,4,8,2,8,239
20,2,5,4,8,2,8,252
20,2,6,4,8,1,5,309
20,2,7,4,8,1,3,242
20,2,8,4,8,1,6,260
20,2,9,4,8,2,9,267
20,2,10,4,8,2,10,219
20,3,1,7,8,2,9,318
20,3,2,7,8,1,7,267
20,3,3,7,8,2,8,245
20,3,4,7,8,2,10,229
20,3,5,7,8,2,8,224
20,3,6,7,8,2,8,226
20,3,7,7,8,2,8,262
20,3,8,7,8,2,9,1822
20,3,9,7,8,2,6,248
20,3,10,7,8,2,8,244
20,4,1,6,2,2,2,359
20,4,2,6,2,1,8,369
20,4,3,6,2,1,7,226
20,4,4,6,2,1,6,219
20,4,5,6,2,1,6,244
20,4,6,6,2,1,6,245
20,4,7,6,2,1,7,246
20,4,8,6,2,1,4,494
20,4,9,6,2,1,6,245
20,4,10,6,2,1,7,435
20,5,1,0,2,2,0,1781
20,5,2,0,2,1,-1,588
20,5,3,0,2,1,0,238
20,5,4,0,2,2,3,292
20,5,5,0,2,2,2,256
20,5,6,0,2,2,2,238
20,5,7,0,2,2,2,772
20,5,8,0,2,2,3,263
20,5,9,0,2,2,1,256
20,5,10,0,2,2,1,245
20,6,1,-3,-19,2,-19,483
20,6,2,-3,-19,1,-2,251
20,6,3,-3,-19,1,-3,237
20,6,4,-3,-19,1,-3,252
20,6,5,-3,-19,1,-4,248
20,6,6,-3,-19,1,0,404
20,6,7,-3,-19,1,-5,257
20,6,8,-3,-19,1,-3,237
20,6,9,-3,-19,1,-3,276
20,6,10,-3,-19,1,-4,250
20,7,1,6,4,2,3,353
20,7,2,6,4,1,5,280
20,7,3,6,4,1,7,281
20,7,4,6,4,1,5,241
20,7,5,6,4,1,4,249
20,7,6,6,4,1,5,4832
20,7,7,6,4,1,6,224
20,7,8,6,4,1,6,222
20,7,9,6,4,1,5,226
20,7,10,6,4,1,7,244
20,8,1,-15,-1,2,0,281
20,8,2,-15,-1,1,-15,251
20,8,3,-15,-1,2,-1,335
20,8,4,-15,-1,2,0,239
20,8,5,-15,-1,2,-3,235
20,8,6,-15,-1,2,-2,228
20,8,7,-15,-1,2,0,243
20,8,8,-15,-1,2,-2,256
20,8,9,-15,-1,2,-2,236
20,8,10,-15,-1,2,0,249
20,9,1,-5,8,2,7,555
20,9,2,-5,8,1,-4,519
20,9,3,-5,8,2,8,235
20,9,4,-5,8,2,10,227
20,9,5,-5,8,2,9,250
20,9,6,-5,8,2,8,245
20,9,7,-5,8,2,8,258
20,9,8,-5,8,2,8,262
20,9,9,-5,8,2,8,268
20,9,10,-5,8,2,9,357
20,10,1,9,-2,2,-1,2422
20,10,2,9,-2,1,8,239
20,10,3,9,-2,1,9,207
20,10,4,9,-2,1,10,285
20,10,5,9,-2,1,8,255
20,10,6,9,-2,1,11,277
20,10,7,9,-2,1,9,280
20,10,8,9,-2,1,10,266
20,10,9,9,-2,1,9,232
20,10,10,9,-2,1,9,315
20,11,1,-2,1,2,1,387
20,11,2,-2,1,1,-1,251
20,11,3,-2,1,2,1,284
20,11,4,-2,1,2,0,238
20,11,5,-2,1,2,1,251
20,11,6,-2,1,2,1,251
20,11,7,-2,1,2,3,261
20,11,8,-2,1,2,2,251
20,11,9,-2,1,2,0,263
20,11,10,-2,1,2,1,245
20,12,1,5,-5,1,4,368
20,12,2,5,-5,1,6,235
20,12,3,5,-5,2,-5,238
20,12,4,5,-5,1,5,312
20,12,5,5,-5,1,4,235
20,12,6,5,-5,1,6,260
20,12,7,5,-5,1,5,241
20,12,8,5,-5,1,5,251
20,12,9,5,-5,1,7,239
20,12,10,5,-5,1,5,261
20,13,1,3,-11,2,-9,295
20,13,2,3,-11,1,2,255
20,13,3,3,-11,1,3,224
20,13,4,3,-11,1,2,241
20,13,5,3,-11,1,3,245
20,13,6,3,-11,1,4,256
20,13,7,3,-11,1,3,258
20,13,8,3,-11,1,3,246
20,13,9,3,-11,1,1,308
20,13,10,3,-11,1,3,360
20,14,1,-6,5,1,-6,306
20,14,2,-6,5,2,7,235
20,14,3,-6,5,2,5,230
20,14,4,-6,5,2,3,225
20,14,5,-6,5,2,4,252
20,14,6,-6,5,2,3,244
20,14,7,-6,5,2,6,237
20,14,8,-6,5,2,6,239
20,14,9,-6,5,2,5,276
20,14,10,-6,5,2,7,244
20,15,1,4,6,2,7,424
20,15,2,4,6,1,3,246
20,15,3,4,6,2,6,263
20,15,4,4,6,2,6,234
20,15,5,4,6,2,6,253
20,15,6,4,6,2,6,273
20,15,7,4,6,2,5,244
20,15,8,4,6,2,4,247
20,15,9,4,6,2,5,250
20,15,10,4,6,2,6,972
20,16,1,3,3,2,2,325
20,16,2,3,3,1,3,240
20,16,3,3,3,1,2,242
20,16,4,3,3,1,4,267
20,16,5,3,3,2,2,9799
20,16,6,3,3,1,4,404
20,16,7,3,3,1,3,285
20,16,8,3,3,1,3,221
20,16,9,3,3,1,2,236
20,16,10,3,3,1,4,244
20,17,1,3,4,2,6,343
20,17,2,3,4,2,4,221
20,17,3,3,4,2,6,239
20,17,4,3,4,1,3,365
20,17,5,3,4,2,5,248
20,17,6,3,4,2,6,251
20,17,7,3,4,2,3,7641
20,17,8,3,4,2,4,213
20,17,9,3,4,2,4,729
20,17,10,3,4,2,3,238
20,18,1,4,4,2,4,477
20,18,2,4,4,1,6,251
20,18,3,4,4,1,5,244
20,18,4,4,4,1,4,212
20,18,5,4,4,1,4,241
20,18,6,4,4,1,4,218
20,18,7,4,4,1,4,231
20,18,8,4,4,1,5,264
20,18,9,4,4,1,5,239
20,18,10,4,4,1,5,238
20,19,1,7,-1,1,7,328
20,19,2,7,-1,2,-1,246
20,19,3,7,-1,1,9,252
20,19,4,7,-1,1,6,230
20,19,5,7,-1,1,9,221
20,19,6,7,-1,1,7,236
20,19,7,7,-1,1,7,520
20,19,8,7,-1,1,7,400
20,19,9,7,-1,1,6,782
20,19,10,7,-1,1,7,239
20,20,1,2,-4,1,0,412
20,20,2,2,-4,2,-5,256
20,20,3,2,-4,1,1,405
20,20,4,2,-4,1,2,230
20,20,5,2,-4,1,2,234
20,20,6,2,-4,1,4,442
20,20,7,2,-4,1,1,239
20,20,8,2,-4,1,1,3712
20,20,9,2,-4,1,3,246
20,20,10,2,-4,1,0,220
21,1,1,3,-5,1,2,946
21,1,2,3,-5,2,-6,717
21,1,3,3,-5,1,4,529
21,1,4,3,-5,1,2,473
21,1,5,3,-5,1,2,469
21,1,6,3,-5,1,6,465
21,1,7,3,-5,1,3,465
21,1,8,3,-5,1,4,491
21,1,9,3,-5,1,5,551
21,1,10,3,-5,1,4,465
21,2,1,2,10,1,0,634
21,2,2,2,10,2,9,582
21,2,3,2,10,2,10,441
21,2,4,2,10,2,11,432
21,2,5,2,10,2,11,418
21,2,6,2,10,2,10,457
21,2,7,2,10,2,12,421
21,2,8,2,10,2,10,450
21,2,9,2,10,2,10,913
21,2,10,2,10,2,10,464
21,3,1,-6,-18,1,-6,521
21,3,2,-6,-18,2,-16,495
21,3,3,-6,-18,1,-6,536
21,3,4,-6,-18,2,-19,519
21,3,5,-6,-18,1,-5,963
21,3,6,-6,-18,1,-6,473
21,3,7,-6,-18,1,-4,461
21,3,8,-6,-18,1,-5,873
21,3,9,-6,-18,1,-5,463
21,3,10,-6,-18,1,-8,487
21,4,1,18,-14,1,18,770
21,4,2,18,-14,2,-13,1017
21,4,3,18,-14,1,17,465
21,4,4,18,-14,1,16,458
21,4,5,18,-14,1,16,463
21,4,6,18,-14,1,20,495
21,4,7,18,-14,1,18,503
21,4,8,18,-14,1,16,443
21,4,9,18,-14,1,17,449
21,4,10,18,-14,1,16,505
21,5,1,7,0,1,7,512
21,5,2,7,0,2,1,489
21,5,3,7,0,1,7,465
21,5,4,7,0,1,7,433
21,5,5,7,0,1,7,1215
21,5,6,7,0,1,6,464
21,5,7,7,0,1,9,432
21,5,8,7,0,1,8,441
21,5,9,7,0,1,7,570
21,5,10,7,0,1,5,890
21,6,1,-5,0,1,-5,622
21,6,2,-5,0,2,0,470
21,6,3,-5,0,2,0,513
21,6,4,-5,0,1,-4,552
21,6,5,-5,0,2,0,477
21,6,6,-5,0,2,-1,448
21,6,7,-5,0,2,-1,487
21,6,8,-5,0,1,-5,464
21,6,9,-5,0,2,-1,673
21,6,10,-5,0,2,1,463
21,7,1,4,-6,1,4,755
21,7,2,4,-6,2,-6,432
21,7,3,4,-6,1,3,977
21,7,4,4,-6,1,4,457
21,7,5,4,-6,1,3,465
21,7,6,4,-6,1,3,601
21,7,7,4,-6,1,3,537
21,7,8,4,-6,1,4,481
21,7,9,4,-6,1,2,497
21,7,10,4,-6,1,5,473
21,8,1,5,12,1,4,594
21,8,2,5,12,2,13,418
21,8,3,5,12,2,14,408
21,8,4,5,12,2,11,433
21,8,5,5,12,2,12,446
21,8,6,5,12,2,13,464
21,8,7,5,12,2,13,447
21,8,8,5,12,2,11,432
21,8,9,5,12,2,11,488
21,8,10,5,12,2,12,464
21,9,1,10,0,1,9,2641
21,9,2,10,0,2,-1,401
21,9,3,10,0,1,11,903
21,9,4,10,0,1,10,456
21,9,5,10,0,1,10,432
21,9,6,10,0,1,10,464
21,9,7,10,0,1,9,576
21,9,8,10,0,1,9,471
21,9,9,10,0,1,10,435
21,9,10,10,0,1,11,464
21,10,1,8,-4,1,8,673
21,10,2,8,-4,2,-3,419
21,10,3,8,-4,1,7,1034
21,10,4,8,-4,1,7,442
21,10,5,8,-4,1,8,1125
21,10,6,8,-4,1,9,495
21,10,7,8,-4,1,8,439
21,10,8,8,-4,1,8,1141
21,10,9,8,-4,1,7,502
21,10,10,8,-4,1,7,478
21,11,1,12,-2,1,11,638
21,11,2,12,-2,1,11,545
21,11,3,12,-2,1,13,489
21,11,4,12,-2,1,12,457
21,11,5,12,-2,1,11,453
21,11,6,12,-2,1,12,490
21,11,7,12,-2,1,13,474
21,11,8,12,-2,1,12,456
21,11,9,12,-2,1,13,461
21,11,10,12,-2,1,11,463
21,12,1,14,14,1,13,511
21,12,2,14,14,1,14,658
21,12,3,14,14,1,14,440
21,12,4,14,14,1,14,480
21,12,5,14,14,1,15,504
21,12,6,14,14,1,13,455
21,12,7,14,14,1,12,459
21,12,8,14,14,1,15,447
21,12,9,14,14,1,12,474
21,12,10,14,14,1,14,481
21,13,1,5,1,1,5,576
21,13,2,5,1,2,0,457
21,13,3,5,1,1,6,449
21,13,4,5,1,1,4,471
21,13,5,5,1,1,6,463
21,13,6,5,1,1,4,439
21,13,7,5,1,1,5,448
21,13,8,5,1,1,5,455
21,13,9,5,1,1,7,431
21,13,10,5,1,1,5,508
21,14,1,3,3,1,2,479
21,14,2,3,3,2,3,551
21,14,3,3,3,2,3,371
21,14,4,3,3,2,3,392
21,14,5,3,3,1,4,527
21,14,6,3,3,1,4,426
21,14,7,3,3,1,2,433
21,14,8,3,3,2,2,408
21,14,9,3,3,1,3,513
21,14,10,3,3,1,3,449
21,15,1,-14,-4,1,-14,532
21,15,2,-14,-4,2,-5,438
21,15,3,-14,-4,2,-4,687
21,15,4,-14,-4,2,-3,415
21,15,5,-14,-4,2,-3,406
21,15,6,-14,-4,1,-14,459
21,15,7,-14,-4,2,-5,386
21,15,8,-14,-4,2,-4,607
21,15,9,-14,-4,2,-5,438
21,15,10,-14,-4,2,-2,463
21,16,1,10,-13,1,10,585
21,16,2,10,-13,1,11,578
21,16,3,10,-13,1,9,443
21,16,4,10,-13,1,11,432
21,16,5,10,-13,1,11,521
21,16,6,10,-13,1,9,474
21,16,7,10,-13,1,9,471
21,16,8,10,-13,1,9,488
21,16,9,10,-13,1,10,479
21,16,10,10,-13,1,10,479
21,17,1,-7,-8,1,-7,554
21,17,2,-7,-8,2,-10,430
21,17,3,-7,-8,1,-7,474
21,17,4,-7,-8,1,-8,450
21,17,5,-7,-8,1,-8,425
21,17,6,-7,-8,1,-8,441
21,17,7,-7,-8,1,-8,471
21,17,8,-7,-8,1,-8,457
21,17,9,-7,-8,1,-6,522
21,17,10,-7,-8,1,-8,493
21,18,1,13,-7,1,15,538
21,18,2,13,-7,1,14,425
21,18,3,13,-7,1,15,426
21,18,4,13,-7,1,14,481
21,18,5,13,-7,1,12,449
21,18,6,13,-7,1,13,471
21,18,7,13,-7,1,12,441
21,18,8,13,-7,1,12,459
21,18,9,13,-7,1,12,449
21,18,10,13,-7,1,15,432
21,19,1,-7,0,1,-9,551
21,19,2,-7,0,2,1,847
21,19,3,-7,0,2,0,986
21,19,4,-7,0,2,-1,409
21,19,5,-7,0,1,-6,511
21,19,6,-7,0,2,1,415
21,19,7,-7,0,2,0,425
21,19,8,-7,0,2,1,403
21,19,9,-7,0,2,1,409
21,19,10,-7,0,2,1,426
21,20,1,-4,-10,2,-9,556
21,20,2,-4,-10,1,-4,450
21,20,3,-4,-10,1,-4,408
21,20,4,-4,-10,1,-3,456
21,20,5,-4,-10,1,-4,428
21,20,6,-4,-10,1,-3,472
21,20,7,-4,-10,1,-3,440
21,20,8,-4,-10,1,-4,528
21,20,9,-4,-10,1,-5,448
21,20,10,-4,-10,1,-5,456
22,1,1,22,-2,1,23,1762
22,1,2,22,-2,2,-2,642
22,1,3,22,-2,1,22,447
22,1,4,22,-2,1,23,382
22,1,5,22,-2,1,21,333
22,1,6,22,-2,1,21,366
22,1,7,22,-2,1,22,365
22,1,8,22,-2,1,22,363
22,1,9,22,-2,1,21,381
22,1,10,22,-2,2,-1,653
22,2,1,-3,5,1,-2,660
22,2,2,-3,5,2,5,316
22,2,3,-3,5,2,4,377
22,2,4,-3,5,2,5,314
22,2,5,-3,5,1,-5,379
22,2,6,-3,5,2,5,351
22,2,7,-3,5,2,4,367
22,2,8,-3,5,2,4,349
22,2,9,-3,5,2,4,366
22,2,10,-3,5,2,4,317
22,3,1,2,-11,2,-12,516
22,3,2,2,-11,1,1,381
22,3,3,2,-11,1,2,347
22,3,4,2,-11,1,2,319
22,3,5,2,-11,1,2,286
22,3,6,2,-11,1,3,429
22,3,7,2,-11,2,-11,414
22,3,8,2,-11,1,1,515
22,3,9,2,-11,1,3,351
22,3,10,2,-11,1,1,367
22,4,1,10,-8,1,10,595
22,4,2,10,-8,2,-8,349
22,4,3,10,-8,1,11,331
22,4,4,10,-8,1,10,282
22,4,5,10,-8,1,10,320
22,4,6,10,-8,1,10,300
22,4,7,10,-8,1,9,315
22,4,8,10,-8,1,8,345
22,4,9,10,-8,1,12,510
22,4,10,10,-8,1,8,346
22,5,1,-7,2,1,-7,648
22,5,2,-7,2,2,1,335
22,5,3,-7,2,2,3,286
22,5,4,-7,2,2,1,300
22,5,5,-7,2,2,2,542
22,5,6,-7,2,2,1,319
22,5,7,-7,2,2,1,266
22,5,8,-7,2,2,3,252
22,5,9,-7,2,2,1,291
22,5,10,-7,2,2,2,301
22,6,1,12,12,2,12,592
22,6,2,12,12,1,12,349
22,6,3,12,12,2,12,430
22,6,4,12,12,1,12,301
22,6,5,12,12,2,12,301
22,6,6,12,12,1,13,331
22,6,7,12,12,2,13,381
22,6,8,12,12,1,14,366
22,6,9,12,12,2,12,351
22,6,10,12,12,1,10,398
22,7,1,4,5,2,5,625
22,7,2,4,5,1,5,333
22,7,3,4,5,2,4,324
22,7,4,4,5,1,3,382
22,7,5,4,5,2,6,336
22,7,6,4,5,2,5,318
22,7,7,4,5,2,6,270
22,7,8,4,5,2,5,285
22,7,9,4,5,1,4,430
22,7,10,4,5,2,4,397
22,8,1,-6,-7,2,-7,465
22,8,2,-6,-7,1,-6,309
22,8,3,-6,-7,2,-7,349
22,8,4,-6,-7,1,-5,364
22,8,5,-6,-7,1,-6,369
22,8,6,-6,-7,2,-8,460
22,8,7,-6,-7,1,-7,396
22,8,8,-6,-7,1,-7,319
22,8,9,-6,-7,2,-8,335
22,8,10,-6,-7,1,-7,366
22,9,1,5,4,2,4,500
22,9,2,5,4,1,7,318
22,9,3,5,4,1,7,429
22,9,4,5,4,1,5,301
22,9,5,5,4,1,6,323
22,9,6,5,4,1,5,302
22,9,7,5,4,1,6,319
22,9,8,5,4,1,7,268
22,9,9,5,4,1,6,284
22,9,10,5,4,1,5,354
22,10,1,8,6,2,6,417
22,10,2,8,6,1,8,332
22,10,3,8,6,1,8,302
22,10,4,8,6,1,8,286
22,10,5,8,6,1,9,290
22,10,6,8,6,1,8,316
22,10,7,8,6,1,7,270
22,10,8,8,6,1,9,300
22,10,9,8,6,1,7,479
22,10,10,8,6,1,7,306
22,11,1,15,3,2,4,660
22,11,2,15,3,1,16,270
22,11,3,15,3,1,15,319
22,11,4,15,3,1,15,285
22,11,5,15,3,1,16,291
22,11,6,15,3,1,15,319
22,11,7,15,3,1,15,268
22,11,8,15,3,1,15,318
22,11,9,15,3,1,15,295
22,11,10,15,3,1,13,317
22,12,1,5,10,1,5,756
22,12,2,5,10,2,11,335
22,12,3,5,10,2,10,415
22,12,4,5,10,2,9,316
22,12,5,5,10,2,10,314
22,12,6,5,10,2,10,304
22,12,7,5,10,2,10,303
22,12,8,5,10,2,10,322
22,12,9,5,10,2,10,349
22,12,10,5,10,2,9,319
22,13,1,4,7,2,7,527
22,13,2,4,7,1,5,286
22,13,3,4,7,2,6,509
22,13,4,4,7,2,8,291
22,13,5,4,7,2,7,252
22,13,6,4,7,2,7,300
22,13,7,4,7,2,6,432
22,13,8,4,7,2,7,278
22,13,9,4,7,2,6,317
22,13,10,4,7,2,5,268
22,14,1,-3,-3,2,-4,355
22,14,2,-3,-3,1,-2,302
22,14,3,-3,-3,2,-3,382
22,14,4,-3,-3,1,-2,352
22,14,5,-3,-3,2,-4,335
22,14,6,-3,-3,1,-2,365
22,14,7,-3,-3,2,-3,332
22,14,8,-3,-3,1,-1,335
22,14,9,-3,-3,1,-5,270
22,14,10,-3,-3,1,-4,318
22,15,1,14,-7,2,-7,528
22,15,2,14,-7,1,13,290
22,15,3,14,-7,1,15,266
22,15,4,14,-7,1,14,269
22,15,5,14,-7,1,13,285
22,15,6,14,-7,1,16,286
22,15,7,14,-7,1,15,290
22,15,8,14,-7,1,14,269
22,15,9,14,-7,1,15,318
22,15,10,14,-7,1,14,302
22,16,1,-2,5,2,5,676
22,16,2,-2,5,1,-3,283
22,16,3,-2,5,2,6,317
22,16,4,-2,5,2,7,255
22,16,5,-2,5,2,4,314
22,16,6,-2,5,2,5,287
22,16,7,-2,5,2,6,285
22,16,8,-2,5,2,3,287
22,16,9,-2,5,2,4,301
22,16,10,-2,5,2,6,287
22,17,1,4,4,2,3,689
22,17,2,4,4,1,5,461
22,17,3,4,4,1,7,1582
22,17,4,4,4,1,4,882
22,17,5,4,4,1,2,286
22,17,6,4,4,1,3,286
22,17,7,4,4,2,4,353
22,17,8,4,4,2,3,346
22,17,9,4,4,2,6,362
22,17,10,4,4,2,4,349
22,18,1,1,3,2,2,466
22,18,2,1,3,1,3,334
22,18,3,1,3,1,-1,299
22,18,4,1,3,2,3,529
22,18,5,1,3,2,3,333
22,18,6,1,3,2,4,352
22,18,7,1,3,2,4,330
22,18,8,1,3,2,3,318
22,18,9,1,3,2,4,318
22,18,10,1,3,2,2,303
22,19,1,1,-4,2,-5,722
22,19,2,1,-4,1,2,562
22,19,3,1,-4,1,3,249
22,19,4,1,-4,1,0,255
22,19,5,1,-4,1,0,412
22,19,6,1,-4,1,1,306
22,19,7,1,-4,1,0,334
22,19,8,1,-4,1,-1,302
22,19,9,1,-4,2,-3,606
22,19,10,1,-4,1,3,289
22,20,1,9,-2,2,-2,448
22,20,2,9,-2,1,10,463
22,20,3,9,-2,1,11,287
22,20,4,9,-2,1,7,272
22,20,5,9,-2,1,7,286
22,20,6,9,-2,1,9,300
22,20,7,9,-2,1,8,333
22,20,8,9,-2,1,10,336
22,20,9,9,-2,1,10,283
22,20,10,9,-2,1,10,319
23,1,1,8,8,2,8,1073
23,1,2,8,8,1,8,477
23,1,3,8,8,1,7,422
23,1,4,8,8,2,8,463
23,1,5,8,8,2,8,389
23,1,6,8,8,2,7,383
23,1,7,8,8,1,9,395
23,1,8,8,8,1,8,363
23,1,9,8,8,1,9,376
23,1,10,8,8,1,9,511
23,2,1,2,-15,1,2,880
23,2,2,2,-15,2,-14,366
23,2,3,2,-15,1,4,670
23,2,4,2,-15,1,3,399
23,2,5,2,-15,1,2,374
23,2,6,2,-15,2,-17,455
23,2,7,2,-15,1,3,438
23,2,8,2,-15,1,3,420
23,2,9,2,-15,1,3,439
23,2,10,2,-15,1,2,407
23,3,1,-5,3,1,-4,5833
23,3,2,-5,3,2,5,374
23,3,3,-5,3,2,3,335
23,3,4,-5,3,2,2,669
23,3,5,-5,3,2,3,366
23,3,6,-5,3,2,3,391
23,3,7,-5,3,2,3,360
23,3,8,-5,3,2,3,387
23,3,9,-5,3,2,2,376
23,3,10,-5,3,1,-3,391
23,4,1,-11,-1,2,-1,616
23,4,2,-11,-1,1,-11,359
23,4,3,-11,-1,2,-2,464
23,4,4,-11,-1,2,0,334
23,4,5,-11,-1,2,-1,310
23,4,6,-11,-1,2,-1,407
23,4,7,-11,-1,2,-2,352
23,4,8,-11,-1,2,0,382
23,4,9,-11,-1,2,0,370
23,4,10,-11,-1,2,-1,375
23,5,1,11,1,1,11,800
23,5,2,11,1,2,2,341
23,5,3,11,1,1,11,383
23,5,4,11,1,1,10,359
23,5,5,11,1,1,10,420
23,5,6,11,1,2,2,343
23,5,7,11,1,1,12,414
23,5,8,11,1,1,10,334
23,5,9,11,1,1,10,359
23,5,10,11,1,1,11,365
23,6,1,-9,-4,1,-8,449
23,6,2,-9,-4,2,-5,671
23,6,3,-9,-4,2,-5,343
23,6,4,-9,-4,2,-3,375
23,6,5,-9,-4,2,-4,351
23,6,6,-9,-4,2,-3,358
23,6,7,-9,-4,2,-5,462
23,6,8,-9,-4,2,-4,375
23,6,9,-9,-4,2,-3,355
23,6,10,-9,-4,2,-3,423
23,7,1,6,6,1,5,690
23,7,2,6,6,2,5,309
23,7,3,6,6,2,4,376
23,7,4,6,6,1,4,389
23,7,5,6,6,2,6,374
23,7,6,6,6,1,8,385
23,7,7,6,6,2,5,374
23,7,8,6,6,1,6,383
23,7,9,6,6,1,8,335
23,7,10,6,6,1,5,304
23,8,1,-1,4,2,6,517
23,8,2,-1,4,1,0,364
23,8,3,-1,4,2,4,456
23,8,4,-1,4,2,3,447
23,8,5,-1,4,2,4,312
23,8,6,-1,4,1,0,319
23,8,7,-1,4,2,4,391
23,8,8,-1,4,2,4,327
23,8,9,-1,4,2,4,327
23,8,10,-1,4,2,5,335
23,9,1,10,-3,1,9,846
23,9,2,10,-3,2,-3,463
23,9,3,10,-3,1,10,414
23,9,4,10,-3,1,10,318
23,9,5,10,-3,1,10,365
23,9,6,10,-3,1,11,432
23,9,7,10,-3,1,10,456
23,9,8,10,-3,1,11,478
23,9,9,10,-3,1,10,384
23,9,10,10,-3,1,11,390
23,10,1,0,10,1,-1,456
23,10,2,0,10,2,12,398
23,10,3,0,10,2,11,326
23,10,4,0,10,2,11,343
23,10,5,0,10,2,11,383
23,10,6,0,10,2,9,368
23,10,7,0,10,2,10,344
23,10,8,0,10,2,10,432
23,10,9,0,10,2,10,382
23,10,10,0,10,2,10,399
23,11,1,5,10,1,6,503
23,11,2,5,10,1,4,326
23,11,3,5,10,2,10,333
23,11,4,5,10,2,9,334
23,11,5,5,10,2,10,358
23,11,6,5,10,2,9,357
23,11,7,5,10,2,9,359
23,11,8,5,10,2,12,311
23,11,9,5,10,2,11,315
23,11,10,5,10,2,10,341
23,12,1,-4,-1,2,-2,601
23,12,2,-4,-1,1,-5,424
23,12,3,-4,-1,2,-2,360
23,12,4,-4,-1,2,0,353
23,12,5,-4,-1,2,0,350
23,12,6,-4,-1,2,-1,383
23,12,7,-4,-1,2,-1,375
23,12,8,-4,-1,2,0,1135
23,12,9,-4,-1,2,-2,406
23,12,10,-4,-1,2,-2,393
23,13,1,0,8,1,0,639
23,13,2,0,8,2,7,646
23,13,3,0,8,2,9,463
23,13,4,0,8,2,6,317
23,13,5,0,8,2,8,367
23,13,6,0,8,2,8,376
23,13,7,0,8,2,9,411
23,13,8,0,8,2,9,368
23,13,9,0,8,2,7,351
23,13,10,0,8,2,8,393
23,14,1,-7,3,1,-8,721
23,14,2,-7,3,2,2,327
23,14,3,-7,3,2,3,342
23,14,4,-7,3,2,4,375
23,14,5,-7,3,2,2,370
23,14,6,-7,3,2,5,367
23,14,7,-7,3,2,5,345
23,14,8,-7,3,2,3,359
23,14,9,-7,3,2,4,360
23,14,10,-7,3,2,4,334
23,15,1,-2,-3,2,-2,500
23,15,2,-2,-3,1,-1,384
23,15,3,-2,-3,1,-1,343
23,15,4,-2,-3,1,-2,425
23,15,5,-2,-3,1,-1,407
23,15,6,-2,-3,2,-4,347
23,15,7,-2,-3,1,-2,382
23,15,8,-2,-3,1,-4,385
23,15,9,-2,-3,1,-2,1183
23,15,10,-2,-3,1,-1,463
23,16,1,2,3,1,3,395
23,16,2,2,3,2,2,1033
23,16,3,2,3,2,2,1191
23,16,4,2,3,1,3,399
23,16,5,2,3,1,2,429
23,16,6,2,3,2,1,1119
23,16,7,2,3,1,1,416
23,16,8,2,3,1,3,351
23,16,9,2,3,2,2,390
23,16,10,2,3,2,3,341
23,17,1,-9,4,1,-10,544
23,17,2,-9,4,2,2,335
23,17,3,-9,4,2,5,334
23,17,4,-9,4,2,3,359
23,17,5,-9,4,2,2,359
23,17,6,-9,4,2,3,331
23,17,7,-9,4,2,3,391
23,17,8,-9,4,2,4,391
23,17,9,-9,4,2,3,391
23,17,10,-9,4,2,4,357
23,18,1,5,6,2,5,544
23,18,2,5,6,1,7,703
23,18,3,5,6,1,5,487
23,18,4,5,6,2,8,503
23,18,5,5,6,2,7,373
23,18,6,5,6,2,5,357
23,18,7,5,6,2,7,381
23,18,8,5,6,1,7,367
23,18,9,5,6,1,4,398
23,18,10,5,6,1,6,391
23,19,1,1,-11,2,-12,768
23,19,2,1,-11,1,1,942
23,19,3,1,-11,1,2,383
23,19,4,1,-11,1,3,344
23,19,5,1,-11,1,1,431
23,19,6,1,-11,1,3,374
23,19,7,1,-11,1,0,383
23,19,8,1,-11,1,1,429
23,19,9,1,-11,1,2,400
23,19,10,1,-11,1,1,347
23,20,1,-11,-10,1,-9,432
23,20,2,-11,-10,2,-10,1062
23,20,3,-11,-10,1,-10,479
23,20,4,-11,-10,1,-12,359
23,20,5,-11,-10,2,-12,1135
23,20,6,-11,-10,2,-9,431
23,20,7,-11,-10,2,-11,416
23,20,8,-11,-10,1,-12,366
23,20,9,-11,-10,1,-11,349
23,20,10,-11,-10,1,-12,411
24,1,1,12,6,1,12,945
24,1,2,12,6,2,5,492
24,1,3,12,6,2,6,391
24,1,4,12,6,1,13,783
24,1,5,12,6,1,11,391
24,1,6,12,6,1,14,375
24,1,7,12,6,1,13,416
24,1,8,12,6,1,12,422
24,1,9,12,6,1,10,416
24,1,10,12,6,1,13,375
24,2,1,-4,-5,2,-3,576
24,2,2,-4,-5,1,-1,574
24,2,3,-4,-5,1,-1,464
24,2,4,-4,-5,1,-3,326
24,2,5,-4,-5,2,-4,575
24,2,6,-4,-5,1,-5,423
24,2,7,-4,-5,2,-6,496
24,2,8,-4,-5,1,-4,319
24,2,9,-4,-5,1,-4,343
24,2,10,-4,-5,1,-3,399
24,3,1,14,-8,1,14,640
24,3,2,14,-8,1,12,408
24,3,3,14,-8,1,13,350
24,3,4,14,-8,1,15,600
24,3,5,14,-8,1,14,375
24,3,6,14,-8,1,14,375
24,3,7,14,-8,1,15,384
24,3,8,14,-8,1,15,327
24,3,9,14,-8,1,13,382
24,3,10,14,-8,1,14,1175
24,4,1,-15,9,2,8,640
24,4,2,-15,9,2,9,422
24,4,3,-15,9,1,-16,431
24,4,4,-15,9,2,8,401
24,4,5,-15,9,2,7,335
24,4,6,-15,9,2,10,407
24,4,7,-15,9,2,10,367
24,4,8,-15,9,2,10,326
24,4,9,-15,9,2,9,351
24,4,10,-15,9,2,9,336
24,5,1,3,7,2,6,735
24,5,2,3,7,1,7,423
24,5,3,3,7,1,2,376
24,5,4,3,7,2,6,345
24,5,5,3,7,2,6,342
24,5,6,3,7,2,7,399
24,5,7,3,7,2,9,382
24,5,8,3,7,2,6,1172
24,5,9,3,7,2,6,463
24,5,10,3,7,2,7,397
24,6,1,-7,-8,2,-7,8200
24,6,2,-7,-8,1,-8,586
24,6,3,-7,-8,2,-8,471
24,6,4,-7,-8,1,-7,423
24,6,5,-7,-8,1,-7,367
24,6,6,-7,-8,1,-6,295
24,6,7,-7,-8,1,-7,344
24,6,8,-7,-8,1,-8,975
24,6,9,-7,-8,1,-8,326
24,6,10,-7,-8,1,-7,1031
24,7,1,-1,-10,2,-10,528
24,7,2,-1,-10,1,-2,496
24,7,3,-1,-10,2,-10,375
24,7,4,-1,-10,1,-1,383
24,7,5,-1,-10,1,-1,310
24,7,6,-1,-10,1,-1,455
24,7,7,-1,-10,1,-1,343
24,7,8,-1,-10,1,-1,367
24,7,9,-1,-10,1,-1,370
24,7,10,-1,-10,1,-1,327
24,8,1,-13,2,1,-11,1008
24,8,2,-13,2,2,3,428
24,8,3,-13,2,2,3,384
24,8,4,-13,2,2,3,343
24,8,5,-13,2,2,2,365
24,8,6,-13,2,2,2,479
24,8,7,-13,2,2,3,357
24,8,8,-13,2,2,1,383
24,8,9,-13,2,2,0,423
24,8,10,-13,2,2,2,463
24,9,1,-3,-2,2,-1,520
24,9,2,-3,-2,1,-3,423
24,9,3,-3,-2,2,1,362
24,9,4,-3,-2,2,-3,351
24,9,5,-3,-2,2,-1,359
24,9,6,-3,-2,2,-3,398
24,9,7,-3,-2,2,-3,391
24,9,8,-3,-2,2,-3,383
24,9,9,-3,-2,2,-4,360
24,9,10,-3,-2,2,-3,1190
24,10,1,9,-4,1,7,814
24,10,2,9,-4,1,8,639
24,10,3,9,-4,1,11,384
24,10,4,9,-4,1,9,368
24,10,5,9,-4,1,11,392
24,10,6,9,-4,1,10,383
24,10,7,9,-4,1,8,368
24,10,8,9,-4,1,7,375
24,10,9,9,-4,1,9,409
24,10,10,9,-4,1,9,334
24,11,1,13,2,2,3,704
24,11,2,13,2,2,2,888
24,11,3,13,2,2,4,351
24,11,4,13,2,2,2,351
24,11,5,13,2,2,1,335
24,11,6,13,2,2,3,351
24,11,7,13,2,2,4,376
24,11,8,13,2,2,3,384
24,11,9,13,2,2,3,364
24,11,10,13,2,2,5,336
24,12,1,-6,-5,2,-5,519
24,12,2,-6,-5,1,-6,399
24,12,3,-6,-5,1,-5,366
24,12,4,-6,-5,1,-6,350
24,12,5,-6,-5,1,-5,367
24,12,6,-6,-5,1,-4,369
24,12,7,-6,-5,1,-5,357
24,12,8,-6,-5,1,-5,358
24,12,9,-6,-5,1,-5,383
